subject,trialCount,trialAttempt,RT,nCorrect,slot0Acc,slot0CurrentType,slot0CorrectType,slot0CurrentSRC,slot0CorrectSRC,slot1Acc,slot1CurrentType,slot1CorrectType,slot1CurrentSRC,slot1CorrectSRC,slot2Acc,slot2CurrentType,slot2CorrectType,slot2CurrentSRC,slot2CorrectSRC,slot3Acc,slot3CurrentType,slot3CorrectType,slot3CurrentSRC,slot3CorrectSRC,slot4Acc,slot4CurrentType,slot4CorrectType,slot4CurrentSRC,slot4CorrectSRC,slot5Acc,slot5CurrentType,slot5CorrectType,slot5CurrentSRC,slot5CorrectSRC,slot6Acc,slot6CurrentType,slot6CorrectType,slot6CurrentSRC,slot6CorrectSRC,slot7Acc,slot7CurrentType,slot7CorrectType,slot7CurrentSRC,slot7CorrectSRC,slot8Acc,slot8CurrentType,slot8CorrectType,slot8CurrentSRC,slot8CorrectSRC,slot9Acc,slot9CurrentType,slot9CorrectType,slot9CurrentSRC,slot9CorrectSRC
sub1,1,1,48660,1,0,neutral,threat,picture5.jpg,picture2.jpg,0,threat,neutral,picture2.jpg,picture7.jpg,0,neutral,neutral,picture7.jpg,picture3.jpg,1,threat,threat,picture3.jpg,picture3.jpg,0,neutral,neutral,picture9.jpg,picture6.jpg,0,neutral,neutral,picture4.jpg,picture9.jpg,0,neutral,threat,picture3.jpg,picture1.jpg,0,threat,neutral,picture4.jpg,picture5.jpg,0,neutral,neutral,picture6.jpg,picture4.jpg,0,threat,threat,picture1.jpg,picture4.jpg
sub1,1,2,63795,2,1,threat,threat,picture2.jpg,picture2.jpg,0,threat,neutral,picture1.jpg,picture7.jpg,0,neutral,neutral,picture9.jpg,picture3.jpg,1,threat,threat,picture3.jpg,picture3.jpg,0,neutral,neutral,picture7.jpg,picture6.jpg,0,neutral,neutral,picture5.jpg,picture9.jpg,0,neutral,threat,picture4.jpg,picture1.jpg,0,threat,neutral,picture4.jpg,picture5.jpg,0,neutral,neutral,picture3.jpg,picture4.jpg,0,neutral,threat,picture6.jpg,picture4.jpg
sub1,1,3,70411,3,1,threat,threat,picture2.jpg,picture2.jpg,0,threat,neutral,picture1.jpg,picture7.jpg,0,neutral,neutral,picture9.jpg,picture3.jpg,1,threat,threat,picture3.jpg,picture3.jpg,1,neutral,neutral,picture6.jpg,picture6.jpg,0,neutral,neutral,picture5.jpg,picture9.jpg,0,neutral,threat,picture7.jpg,picture1.jpg,0,threat,neutral,picture4.jpg,picture5.jpg,0,neutral,neutral,picture3.jpg,picture4.jpg,0,neutral,threat,picture4.jpg,picture4.jpg
sub1,1,4,74251,3,1,threat,threat,picture2.jpg,picture2.jpg,0,threat,neutral,picture1.jpg,picture7.jpg,0,neutral,neutral,picture9.jpg,picture3.jpg,1,threat,threat,picture3.jpg,picture3.jpg,1,neutral,neutral,picture6.jpg,picture6.jpg,0,neutral,neutral,picture5.jpg,picture9.jpg,0,neutral,threat,picture4.jpg,picture1.jpg,0,threat,neutral,picture4.jpg,picture5.jpg,0,neutral,neutral,picture3.jpg,picture4.jpg,0,neutral,threat,picture7.jpg,picture4.jpg
sub1,1,5,79499,4,1,threat,threat,picture2.jpg,picture2.jpg,0,threat,neutral,picture1.jpg,picture7.jpg,0,neutral,neutral,picture9.jpg,picture3.jpg,1,threat,threat,picture3.jpg,picture3.jpg,1,neutral,neutral,picture6.jpg,picture6.jpg,0,threat,neutral,picture4.jpg,picture9.jpg,0,neutral,threat,picture4.jpg,picture1.jpg,1,neutral,neutral,picture5.jpg,picture5.jpg,0,neutral,neutral,picture7.jpg,picture4.jpg,0,neutral,threat,picture3.jpg,picture4.jpg
sub1,1,6,83211,4,1,threat,threat,picture2.jpg,picture2.jpg,0,threat,neutral,picture1.jpg,picture7.jpg,0,neutral,neutral,picture9.jpg,picture3.jpg,1,threat,threat,picture3.jpg,picture3.jpg,1,neutral,neutral,picture6.jpg,picture6.jpg,0,neutral,neutral,picture7.jpg,picture9.jpg,0,neutral,threat,picture4.jpg,picture1.jpg,1,neutral,neutral,picture5.jpg,picture5.jpg,0,threat,neutral,picture4.jpg,picture4.jpg,0,neutral,threat,picture3.jpg,picture4.jpg
sub1,1,7,88290,5,1,threat,threat,picture2.jpg,picture2.jpg,1,neutral,neutral,picture7.jpg,picture7.jpg,0,neutral,neutral,picture9.jpg,picture3.jpg,1,threat,threat,picture3.jpg,picture3.jpg,1,neutral,neutral,picture6.jpg,picture6.jpg,0,threat,neutral,picture1.jpg,picture9.jpg,0,neutral,threat,picture4.jpg,picture1.jpg,1,neutral,neutral,picture5.jpg,picture5.jpg,0,threat,neutral,picture4.jpg,picture4.jpg,0,neutral,threat,picture3.jpg,picture4.jpg
sub1,1,8,91931,6,1,threat,threat,picture2.jpg,picture2.jpg,1,neutral,neutral,picture7.jpg,picture7.jpg,1,neutral,neutral,picture3.jpg,picture3.jpg,1,threat,threat,picture3.jpg,picture3.jpg,1,neutral,neutral,picture6.jpg,picture6.jpg,0,threat,neutral,picture1.jpg,picture9.jpg,0,neutral,threat,picture4.jpg,picture1.jpg,1,neutral,neutral,picture5.jpg,picture5.jpg,0,threat,neutral,picture4.jpg,picture4.jpg,0,neutral,threat,picture9.jpg,picture4.jpg
sub1,1,9,96970,6,1,threat,threat,picture2.jpg,picture2.jpg,1,neutral,neutral,picture7.jpg,picture7.jpg,1,neutral,neutral,picture3.jpg,picture3.jpg,1,threat,threat,picture3.jpg,picture3.jpg,1,neutral,neutral,picture6.jpg,picture6.jpg,0,threat,neutral,picture1.jpg,picture9.jpg,0,neutral,threat,picture4.jpg,picture1.jpg,1,neutral,neutral,picture5.jpg,picture5.jpg,0,threat,neutral,picture4.jpg,picture4.jpg,0,neutral,threat,picture9.jpg,picture4.jpg
sub1,1,10,101810,7,1,threat,threat,picture2.jpg,picture2.jpg,1,neutral,neutral,picture7.jpg,picture7.jpg,1,neutral,neutral,picture3.jpg,picture3.jpg,1,threat,threat,picture3.jpg,picture3.jpg,1,neutral,neutral,picture6.jpg,picture6.jpg,1,neutral,neutral,picture9.jpg,picture9.jpg,0,neutral,threat,picture4.jpg,picture1.jpg,1,neutral,neutral,picture5.jpg,picture5.jpg,0,threat,neutral,picture4.jpg,picture4.jpg,0,threat,threat,picture1.jpg,picture4.jpg
sub1,1,11,105506,8,1,threat,threat,picture2.jpg,picture2.jpg,1,neutral,neutral,picture7.jpg,picture7.jpg,1,neutral,neutral,picture3.jpg,picture3.jpg,1,threat,threat,picture3.jpg,picture3.jpg,1,neutral,neutral,picture6.jpg,picture6.jpg,1,neutral,neutral,picture9.jpg,picture9.jpg,0,neutral,threat,picture4.jpg,picture1.jpg,1,neutral,neutral,picture5.jpg,picture5.jpg,0,threat,neutral,picture1.jpg,picture4.jpg,1,threat,threat,picture4.jpg,picture4.jpg
sub1,1,12,246423,10,1,threat,threat,picture2.jpg,picture2.jpg,1,neutral,neutral,picture7.jpg,picture7.jpg,1,neutral,neutral,picture3.jpg,picture3.jpg,1,threat,threat,picture3.jpg,picture3.jpg,1,neutral,neutral,picture6.jpg,picture6.jpg,1,neutral,neutral,picture9.jpg,picture9.jpg,1,threat,threat,picture1.jpg,picture1.jpg,1,neutral,neutral,picture5.jpg,picture5.jpg,1,neutral,neutral,picture4.jpg,picture4.jpg,1,threat,threat,picture4.jpg,picture4.jpg
sub1,2,1,42605,10,1,threat,threat,picture2.jpg,picture2.jpg,1,neutral,neutral,picture7.jpg,picture7.jpg,1,neutral,neutral,picture3.jpg,picture3.jpg,1,threat,threat,picture3.jpg,picture3.jpg,1,neutral,neutral,picture6.jpg,picture6.jpg,1,neutral,neutral,picture9.jpg,picture9.jpg,1,threat,threat,picture1.jpg,picture1.jpg,1,neutral,neutral,picture5.jpg,picture5.jpg,1,neutral,neutral,picture4.jpg,picture4.jpg,1,threat,threat,picture4.jpg,picture4.jpg
sub1,3,1,32478,10,1,threat,threat,picture2.jpg,picture2.jpg,1,neutral,neutral,picture7.jpg,picture7.jpg,1,neutral,neutral,picture3.jpg,picture3.jpg,1,threat,threat,picture3.jpg,picture3.jpg,1,neutral,neutral,picture6.jpg,picture6.jpg,1,neutral,neutral,picture9.jpg,picture9.jpg,1,threat,threat,picture1.jpg,picture1.jpg,1,neutral,neutral,picture5.jpg,picture5.jpg,1,neutral,neutral,picture4.jpg,picture4.jpg,1,threat,threat,picture4.jpg,picture4.jpg
sub1,4,1,69189,10,1,threat,threat,picture2.jpg,picture2.jpg,1,neutral,neutral,picture7.jpg,picture7.jpg,1,neutral,neutral,picture3.jpg,picture3.jpg,1,threat,threat,picture3.jpg,picture3.jpg,1,neutral,neutral,picture6.jpg,picture6.jpg,1,neutral,neutral,picture9.jpg,picture9.jpg,1,threat,threat,picture1.jpg,picture1.jpg,1,neutral,neutral,picture5.jpg,picture5.jpg,1,neutral,neutral,picture4.jpg,picture4.jpg,1,threat,threat,picture4.jpg,picture4.jpg
sub2,1,1,59729,1,0,threat,neutral,picture4.jpg,picture10.jpg,0,neutral,neutral,picture10.jpg,picture4.jpg,0,neutral,threat,picture8.jpg,picture2.jpg,0,neutral,threat,picture3.jpg,picture3.jpg,1,neutral,neutral,picture9.jpg,picture9.jpg,0,neutral,neutral,picture1.jpg,picture3.jpg,0,threat,neutral,picture1.jpg,picture8.jpg,0,neutral,threat,picture4.jpg,picture1.jpg,0,threat,neutral,picture3.jpg,picture1.jpg,0,threat,threat,picture2.jpg,picture4.jpg
sub2,1,2,64317,1,0,threat,neutral,picture4.jpg,picture10.jpg,0,neutral,neutral,picture10.jpg,picture4.jpg,0,neutral,threat,picture8.jpg,picture2.jpg,0,neutral,threat,picture3.jpg,picture3.jpg,1,neutral,neutral,picture9.jpg,picture9.jpg,0,threat,neutral,picture1.jpg,picture3.jpg,0,neutral,neutral,picture1.jpg,picture8.jpg,0,neutral,threat,picture4.jpg,picture1.jpg,0,threat,neutral,picture3.jpg,picture1.jpg,0,threat,threat,picture2.jpg,picture4.jpg
sub2,1,3,78625,1,0,threat,neutral,picture4.jpg,picture10.jpg,0,neutral,neutral,picture10.jpg,picture4.jpg,0,neutral,threat,picture8.jpg,picture2.jpg,0,neutral,threat,picture3.jpg,picture3.jpg,1,neutral,neutral,picture9.jpg,picture9.jpg,0,neutral,neutral,picture1.jpg,picture3.jpg,0,threat,neutral,picture1.jpg,picture8.jpg,0,neutral,threat,picture4.jpg,picture1.jpg,0,threat,neutral,picture3.jpg,picture1.jpg,0,threat,threat,picture2.jpg,picture4.jpg
sub2,1,4,83975,1,0,threat,neutral,picture2.jpg,picture10.jpg,0,neutral,neutral,picture10.jpg,picture4.jpg,0,neutral,threat,picture8.jpg,picture2.jpg,0,neutral,threat,picture3.jpg,picture3.jpg,1,neutral,neutral,picture9.jpg,picture9.jpg,0,neutral,neutral,picture1.jpg,picture3.jpg,0,threat,neutral,picture4.jpg,picture8.jpg,0,neutral,threat,picture4.jpg,picture1.jpg,0,threat,neutral,picture3.jpg,picture1.jpg,0,threat,threat,picture1.jpg,picture4.jpg
sub2,1,5,87086,1,0,threat,neutral,picture2.jpg,picture10.jpg,0,threat,neutral,picture4.jpg,picture4.jpg,0,neutral,threat,picture8.jpg,picture2.jpg,0,neutral,threat,picture3.jpg,picture3.jpg,1,neutral,neutral,picture9.jpg,picture9.jpg,0,neutral,neutral,picture1.jpg,picture3.jpg,0,neutral,neutral,picture10.jpg,picture8.jpg,0,neutral,threat,picture4.jpg,picture1.jpg,0,threat,neutral,picture3.jpg,picture1.jpg,0,threat,threat,picture1.jpg,picture4.jpg
sub2,1,6,89728,2,0,threat,neutral,picture2.jpg,picture10.jpg,0,threat,neutral,picture4.jpg,picture4.jpg,0,neutral,threat,picture10.jpg,picture2.jpg,0,neutral,threat,picture3.jpg,picture3.jpg,1,neutral,neutral,picture9.jpg,picture9.jpg,0,neutral,neutral,picture1.jpg,picture3.jpg,1,neutral,neutral,picture8.jpg,picture8.jpg,0,neutral,threat,picture4.jpg,picture1.jpg,0,threat,neutral,picture3.jpg,picture1.jpg,0,threat,threat,picture1.jpg,picture4.jpg
sub2,1,7,97788,2,0,threat,neutral,picture2.jpg,picture10.jpg,0,threat,neutral,picture4.jpg,picture4.jpg,0,neutral,threat,picture10.jpg,picture2.jpg,0,neutral,threat,picture3.jpg,picture3.jpg,1,neutral,neutral,picture9.jpg,picture9.jpg,0,threat,neutral,picture1.jpg,picture3.jpg,1,neutral,neutral,picture8.jpg,picture8.jpg,0,neutral,threat,picture4.jpg,picture1.jpg,0,threat,neutral,picture3.jpg,picture1.jpg,0,neutral,threat,picture1.jpg,picture4.jpg
sub2,1,8,99908,2,0,threat,neutral,picture2.jpg,picture10.jpg,0,threat,neutral,picture4.jpg,picture4.jpg,0,neutral,threat,picture10.jpg,picture2.jpg,0,neutral,threat,picture3.jpg,picture3.jpg,1,neutral,neutral,picture9.jpg,picture9.jpg,0,threat,neutral,picture1.jpg,picture3.jpg,1,neutral,neutral,picture8.jpg,picture8.jpg,0,threat,threat,picture3.jpg,picture1.jpg,0,neutral,neutral,picture4.jpg,picture1.jpg,0,neutral,threat,picture1.jpg,picture4.jpg
sub2,1,9,102147,3,0,threat,neutral,picture2.jpg,picture10.jpg,0,threat,neutral,picture4.jpg,picture4.jpg,0,neutral,threat,picture10.jpg,picture2.jpg,0,neutral,threat,picture3.jpg,picture3.jpg,1,neutral,neutral,picture9.jpg,picture9.jpg,0,threat,neutral,picture1.jpg,picture3.jpg,1,neutral,neutral,picture8.jpg,picture8.jpg,0,threat,threat,picture3.jpg,picture1.jpg,1,neutral,neutral,picture1.jpg,picture1.jpg,0,neutral,threat,picture4.jpg,picture4.jpg
sub2,1,10,105921,3,0,threat,neutral,picture2.jpg,picture10.jpg,0,threat,neutral,picture4.jpg,picture4.jpg,0,neutral,threat,picture10.jpg,picture2.jpg,0,neutral,threat,picture3.jpg,picture3.jpg,1,neutral,neutral,picture9.jpg,picture9.jpg,0,threat,neutral,picture1.jpg,picture3.jpg,1,neutral,neutral,picture8.jpg,picture8.jpg,0,neutral,threat,picture4.jpg,picture1.jpg,1,neutral,neutral,picture1.jpg,picture1.jpg,0,threat,threat,picture3.jpg,picture4.jpg
sub2,1,11,108928,4,0,threat,neutral,picture2.jpg,picture10.jpg,0,threat,neutral,picture4.jpg,picture4.jpg,0,neutral,threat,picture10.jpg,picture2.jpg,0,neutral,threat,picture3.jpg,picture3.jpg,1,neutral,neutral,picture9.jpg,picture9.jpg,0,neutral,neutral,picture4.jpg,picture3.jpg,1,neutral,neutral,picture8.jpg,picture8.jpg,1,threat,threat,picture1.jpg,picture1.jpg,1,neutral,neutral,picture1.jpg,picture1.jpg,0,threat,threat,picture3.jpg,picture4.jpg
sub2,1,12,112278,4,0,threat,neutral,picture3.jpg,picture10.jpg,0,threat,neutral,picture4.jpg,picture4.jpg,0,neutral,threat,picture10.jpg,picture2.jpg,0,neutral,threat,picture3.jpg,picture3.jpg,1,neutral,neutral,picture9.jpg,picture9.jpg,0,neutral,neutral,picture4.jpg,picture3.jpg,1,neutral,neutral,picture8.jpg,picture8.jpg,1,threat,threat,picture1.jpg,picture1.jpg,1,neutral,neutral,picture1.jpg,picture1.jpg,0,threat,threat,picture2.jpg,picture4.jpg
sub2,1,13,115789,4,0,threat,neutral,picture4.jpg,picture10.jpg,0,threat,neutral,picture3.jpg,picture4.jpg,0,neutral,threat,picture10.jpg,picture2.jpg,0,neutral,threat,picture3.jpg,picture3.jpg,1,neutral,neutral,picture9.jpg,picture9.jpg,0,neutral,neutral,picture4.jpg,picture3.jpg,1,neutral,neutral,picture8.jpg,picture8.jpg,1,threat,threat,picture1.jpg,picture1.jpg,1,neutral,neutral,picture1.jpg,picture1.jpg,0,threat,threat,picture2.jpg,picture4.jpg
sub2,1,14,117957,4,0,threat,neutral,picture4.jpg,picture10.jpg,0,neutral,neutral,picture10.jpg,picture4.jpg,0,threat,threat,picture3.jpg,picture2.jpg,0,neutral,threat,picture3.jpg,picture3.jpg,1,neutral,neutral,picture9.jpg,picture9.jpg,0,neutral,neutral,picture4.jpg,picture3.jpg,1,neutral,neutral,picture8.jpg,picture8.jpg,1,threat,threat,picture1.jpg,picture1.jpg,1,neutral,neutral,picture1.jpg,picture1.jpg,0,threat,threat,picture2.jpg,picture4.jpg
sub2,1,15,121131,5,0,threat,neutral,picture4.jpg,picture10.jpg,0,neutral,neutral,picture10.jpg,picture4.jpg,0,neutral,threat,picture3.jpg,picture2.jpg,1,threat,threat,picture3.jpg,picture3.jpg,1,neutral,neutral,picture9.jpg,picture9.jpg,0,neutral,neutral,picture4.jpg,picture3.jpg,1,neutral,neutral,picture8.jpg,picture8.jpg,1,threat,threat,picture1.jpg,picture1.jpg,1,neutral,neutral,picture1.jpg,picture1.jpg,0,threat,threat,picture2.jpg,picture4.jpg
sub2,1,16,124770,5,0,neutral,neutral,picture3.jpg,picture10.jpg,0,neutral,neutral,picture10.jpg,picture4.jpg,0,threat,threat,picture4.jpg,picture2.jpg,1,threat,threat,picture3.jpg,picture3.jpg,1,neutral,neutral,picture9.jpg,picture9.jpg,0,neutral,neutral,picture4.jpg,picture3.jpg,1,neutral,neutral,picture8.jpg,picture8.jpg,1,threat,threat,picture1.jpg,picture1.jpg,1,neutral,neutral,picture1.jpg,picture1.jpg,0,threat,threat,picture2.jpg,picture4.jpg
sub2,1,17,129317,5,0,neutral,neutral,picture3.jpg,picture10.jpg,0,threat,neutral,picture2.jpg,picture4.jpg,0,threat,threat,picture4.jpg,picture2.jpg,1,threat,threat,picture3.jpg,picture3.jpg,1,neutral,neutral,picture9.jpg,picture9.jpg,0,neutral,neutral,picture4.jpg,picture3.jpg,1,neutral,neutral,picture8.jpg,picture8.jpg,1,threat,threat,picture1.jpg,picture1.jpg,1,neutral,neutral,picture1.jpg,picture1.jpg,0,neutral,threat,picture10.jpg,picture4.jpg
sub2,1,18,131596,5,0,neutral,neutral,picture3.jpg,picture10.jpg,0,threat,neutral,picture2.jpg,picture4.jpg,0,threat,threat,picture4.jpg,picture2.jpg,1,threat,threat,picture3.jpg,picture3.jpg,1,neutral,neutral,picture9.jpg,picture9.jpg,0,neutral,neutral,picture10.jpg,picture3.jpg,1,neutral,neutral,picture8.jpg,picture8.jpg,1,threat,threat,picture1.jpg,picture1.jpg,1,neutral,neutral,picture1.jpg,picture1.jpg,0,neutral,threat,picture4.jpg,picture4.jpg
sub2,1,19,134565,7,1,neutral,neutral,picture10.jpg,picture10.jpg,0,threat,neutral,picture2.jpg,picture4.jpg,0,threat,threat,picture4.jpg,picture2.jpg,1,threat,threat,picture3.jpg,picture3.jpg,1,neutral,neutral,picture9.jpg,picture9.jpg,1,neutral,neutral,picture3.jpg,picture3.jpg,1,neutral,neutral,picture8.jpg,picture8.jpg,1,threat,threat,picture1.jpg,picture1.jpg,1,neutral,neutral,picture1.jpg,picture1.jpg,0,neutral,threat,picture4.jpg,picture4.jpg
sub2,1,20,138065,8,1,neutral,neutral,picture10.jpg,picture10.jpg,0,threat,neutral,picture4.jpg,picture4.jpg,1,threat,threat,picture2.jpg,picture2.jpg,1,threat,threat,picture3.jpg,picture3.jpg,1,neutral,neutral,picture9.jpg,picture9.jpg,1,neutral,neutral,picture3.jpg,picture3.jpg,1,neutral,neutral,picture8.jpg,picture8.jpg,1,threat,threat,picture1.jpg,picture1.jpg,1,neutral,neutral,picture1.jpg,picture1.jpg,0,neutral,threat,picture4.jpg,picture4.jpg
sub2,1,21,140795,10,1,neutral,neutral,picture10.jpg,picture10.jpg,1,neutral,neutral,picture4.jpg,picture4.jpg,1,threat,threat,picture2.jpg,picture2.jpg,1,threat,threat,picture3.jpg,picture3.jpg,1,neutral,neutral,picture9.jpg,picture9.jpg,1,neutral,neutral,picture3.jpg,picture3.jpg,1,neutral,neutral,picture8.jpg,picture8.jpg,1,threat,threat,picture1.jpg,picture1.jpg,1,neutral,neutral,picture1.jpg,picture1.jpg,1,threat,threat,picture4.jpg,picture4.jpg
sub2,2,1,38115,10,1,neutral,neutral,picture10.jpg,picture10.jpg,1,neutral,neutral,picture4.jpg,picture4.jpg,1,threat,threat,picture2.jpg,picture2.jpg,1,threat,threat,picture3.jpg,picture3.jpg,1,neutral,neutral,picture9.jpg,picture9.jpg,1,neutral,neutral,picture3.jpg,picture3.jpg,1,neutral,neutral,picture8.jpg,picture8.jpg,1,threat,threat,picture1.jpg,picture1.jpg,1,neutral,neutral,picture1.jpg,picture1.jpg,1,threat,threat,picture4.jpg,picture4.jpg
sub2,3,1,72118,10,1,neutral,neutral,picture10.jpg,picture10.jpg,1,neutral,neutral,picture4.jpg,picture4.jpg,1,threat,threat,picture2.jpg,picture2.jpg,1,threat,threat,picture3.jpg,picture3.jpg,1,neutral,neutral,picture9.jpg,picture9.jpg,1,neutral,neutral,picture3.jpg,picture3.jpg,1,neutral,neutral,picture8.jpg,picture8.jpg,1,threat,threat,picture1.jpg,picture1.jpg,1,neutral,neutral,picture1.jpg,picture1.jpg,1,threat,threat,picture4.jpg,picture4.jpg
sub2,4,1,25206,10,1,neutral,neutral,picture10.jpg,picture10.jpg,1,neutral,neutral,picture4.jpg,picture4.jpg,1,threat,threat,picture2.jpg,picture2.jpg,1,threat,threat,picture3.jpg,picture3.jpg,1,neutral,neutral,picture9.jpg,picture9.jpg,1,neutral,neutral,picture3.jpg,picture3.jpg,1,neutral,neutral,picture8.jpg,picture8.jpg,1,threat,threat,picture1.jpg,picture1.jpg,1,neutral,neutral,picture1.jpg,picture1.jpg,1,threat,threat,picture4.jpg,picture4.jpg
sub4,1,1,37170,2,0,threat,threat,picture2.jpg,picture3.jpg,0,neutral,threat,picture1.jpg,picture2.jpg,0,threat,neutral,picture3.jpg,picture5.jpg,0,neutral,neutral,picture9.jpg,picture1.jpg,0,neutral,neutral,picture5.jpg,picture10.jpg,0,threat,neutral,picture4.jpg,picture7.jpg,0,neutral,threat,picture7.jpg,picture4.jpg,1,neutral,neutral,picture6.jpg,picture6.jpg,0,neutral,neutral,picture10.jpg,picture9.jpg,1,threat,threat,picture1.jpg,picture1.jpg
sub4,1,2,47329,3,0,neutral,threat,picture1.jpg,picture3.jpg,1,threat,threat,picture2.jpg,picture2.jpg,0,neutral,neutral,picture9.jpg,picture5.jpg,0,threat,neutral,picture3.jpg,picture1.jpg,0,neutral,neutral,picture7.jpg,picture10.jpg,0,threat,neutral,picture4.jpg,picture7.jpg,0,neutral,threat,picture5.jpg,picture4.jpg,1,neutral,neutral,picture6.jpg,picture6.jpg,0,neutral,neutral,picture10.jpg,picture9.jpg,1,threat,threat,picture1.jpg,picture1.jpg
sub4,1,3,58734,5,0,neutral,threat,picture1.jpg,picture3.jpg,1,threat,threat,picture2.jpg,picture2.jpg,0,neutral,neutral,picture9.jpg,picture5.jpg,0,threat,neutral,picture3.jpg,picture1.jpg,1,neutral,neutral,picture10.jpg,picture10.jpg,0,neutral,neutral,picture5.jpg,picture7.jpg,1,threat,threat,picture4.jpg,picture4.jpg,1,neutral,neutral,picture6.jpg,picture6.jpg,0,neutral,neutral,picture7.jpg,picture9.jpg,1,threat,threat,picture1.jpg,picture1.jpg
sub4,1,4,72390,8,1,threat,threat,picture3.jpg,picture3.jpg,1,threat,threat,picture2.jpg,picture2.jpg,0,neutral,neutral,picture9.jpg,picture5.jpg,1,neutral,neutral,picture1.jpg,picture1.jpg,1,neutral,neutral,picture10.jpg,picture10.jpg,1,neutral,neutral,picture7.jpg,picture7.jpg,1,threat,threat,picture4.jpg,picture4.jpg,1,neutral,neutral,picture6.jpg,picture6.jpg,0,neutral,neutral,picture5.jpg,picture9.jpg,1,threat,threat,picture1.jpg,picture1.jpg
sub4,1,5,84267,10,1,threat,threat,picture3.jpg,picture3.jpg,1,threat,threat,picture2.jpg,picture2.jpg,1,neutral,neutral,picture5.jpg,picture5.jpg,1,neutral,neutral,picture1.jpg,picture1.jpg,1,neutral,neutral,picture10.jpg,picture10.jpg,1,neutral,neutral,picture7.jpg,picture7.jpg,1,threat,threat,picture4.jpg,picture4.jpg,1,neutral,neutral,picture6.jpg,picture6.jpg,1,neutral,neutral,picture9.jpg,picture9.jpg,1,threat,threat,picture1.jpg,picture1.jpg
sub4,2,1,39877,10,1,threat,threat,picture3.jpg,picture3.jpg,1,threat,threat,picture2.jpg,picture2.jpg,1,neutral,neutral,picture5.jpg,picture5.jpg,1,neutral,neutral,picture1.jpg,picture1.jpg,1,neutral,neutral,picture10.jpg,picture10.jpg,1,neutral,neutral,picture7.jpg,picture7.jpg,1,threat,threat,picture4.jpg,picture4.jpg,1,neutral,neutral,picture6.jpg,picture6.jpg,1,neutral,neutral,picture9.jpg,picture9.jpg,1,threat,threat,picture1.jpg,picture1.jpg
sub4,3,1,35257,10,1,threat,threat,picture3.jpg,picture3.jpg,1,threat,threat,picture2.jpg,picture2.jpg,1,neutral,neutral,picture5.jpg,picture5.jpg,1,neutral,neutral,picture1.jpg,picture1.jpg,1,neutral,neutral,picture10.jpg,picture10.jpg,1,neutral,neutral,picture7.jpg,picture7.jpg,1,threat,threat,picture4.jpg,picture4.jpg,1,neutral,neutral,picture6.jpg,picture6.jpg,1,neutral,neutral,picture9.jpg,picture9.jpg,1,threat,threat,picture1.jpg,picture1.jpg
sub4,4,1,36346,10,1,threat,threat,picture3.jpg,picture3.jpg,1,threat,threat,picture2.jpg,picture2.jpg,1,neutral,neutral,picture5.jpg,picture5.jpg,1,neutral,neutral,picture1.jpg,picture1.jpg,1,neutral,neutral,picture10.jpg,picture10.jpg,1,neutral,neutral,picture7.jpg,picture7.jpg,1,threat,threat,picture4.jpg,picture4.jpg,1,neutral,neutral,picture6.jpg,picture6.jpg,1,neutral,neutral,picture9.jpg,picture9.jpg,1,threat,threat,picture1.jpg,picture1.jpg
sub5,1,1,57243,3,1,threat,threat,picture2.jpg,picture2.jpg,1,neutral,neutral,picture10.jpg,picture10.jpg,0,threat,neutral,picture1.jpg,picture7.jpg,0,neutral,threat,picture1.jpg,picture3.jpg,0,neutral,neutral,picture7.jpg,picture9.jpg,1,neutral,neutral,picture8.jpg,picture8.jpg,0,neutral,neutral,picture9.jpg,picture2.jpg,0,threat,neutral,picture4.jpg,picture1.jpg,0,threat,threat,picture3.jpg,picture1.jpg,0,neutral,threat,picture2.jpg,picture4.jpg
sub5,1,2,65596,4,1,threat,threat,picture2.jpg,picture2.jpg,1,neutral,neutral,picture10.jpg,picture10.jpg,0,threat,neutral,picture1.jpg,picture7.jpg,0,neutral,threat,picture1.jpg,picture3.jpg,1,neutral,neutral,picture9.jpg,picture9.jpg,1,neutral,neutral,picture8.jpg,picture8.jpg,0,neutral,neutral,picture7.jpg,picture2.jpg,0,threat,neutral,picture4.jpg,picture1.jpg,0,threat,threat,picture3.jpg,picture1.jpg,0,neutral,threat,picture2.jpg,picture4.jpg
sub5,1,3,73064,4,1,threat,threat,picture2.jpg,picture2.jpg,1,neutral,neutral,picture10.jpg,picture10.jpg,0,threat,neutral,picture1.jpg,picture7.jpg,0,neutral,threat,picture1.jpg,picture3.jpg,1,neutral,neutral,picture9.jpg,picture9.jpg,1,neutral,neutral,picture8.jpg,picture8.jpg,0,threat,neutral,picture4.jpg,picture2.jpg,0,neutral,neutral,picture7.jpg,picture1.jpg,0,threat,threat,picture3.jpg,picture1.jpg,0,neutral,threat,picture2.jpg,picture4.jpg
sub5,1,4,79115,4,1,threat,threat,picture2.jpg,picture2.jpg,1,neutral,neutral,picture10.jpg,picture10.jpg,0,threat,neutral,picture1.jpg,picture7.jpg,0,neutral,threat,picture2.jpg,picture3.jpg,1,neutral,neutral,picture9.jpg,picture9.jpg,1,neutral,neutral,picture8.jpg,picture8.jpg,0,threat,neutral,picture4.jpg,picture2.jpg,0,neutral,neutral,picture7.jpg,picture1.jpg,0,threat,threat,picture3.jpg,picture1.jpg,0,neutral,threat,picture1.jpg,picture4.jpg
sub5,1,5,83993,5,1,threat,threat,picture2.jpg,picture2.jpg,1,neutral,neutral,picture10.jpg,picture10.jpg,0,threat,neutral,picture3.jpg,picture7.jpg,0,neutral,threat,picture2.jpg,picture3.jpg,1,neutral,neutral,picture9.jpg,picture9.jpg,1,neutral,neutral,picture8.jpg,picture8.jpg,0,threat,neutral,picture4.jpg,picture2.jpg,0,neutral,neutral,picture7.jpg,picture1.jpg,1,threat,threat,picture1.jpg,picture1.jpg,0,neutral,threat,picture1.jpg,picture4.jpg
sub5,1,6,91258,5,1,threat,threat,picture2.jpg,picture2.jpg,1,neutral,neutral,picture10.jpg,picture10.jpg,0,threat,neutral,picture3.jpg,picture7.jpg,0,neutral,threat,picture2.jpg,picture3.jpg,1,neutral,neutral,picture9.jpg,picture9.jpg,1,neutral,neutral,picture8.jpg,picture8.jpg,0,neutral,neutral,picture7.jpg,picture2.jpg,0,threat,neutral,picture4.jpg,picture1.jpg,1,threat,threat,picture1.jpg,picture1.jpg,0,neutral,threat,picture1.jpg,picture4.jpg
sub5,1,7,98224,6,1,threat,threat,picture2.jpg,picture2.jpg,1,neutral,neutral,picture10.jpg,picture10.jpg,0,neutral,neutral,picture2.jpg,picture7.jpg,1,threat,threat,picture3.jpg,picture3.jpg,1,neutral,neutral,picture9.jpg,picture9.jpg,1,neutral,neutral,picture8.jpg,picture8.jpg,0,neutral,neutral,picture7.jpg,picture2.jpg,0,threat,neutral,picture4.jpg,picture1.jpg,1,threat,threat,picture1.jpg,picture1.jpg,0,neutral,threat,picture1.jpg,picture4.jpg
sub5,1,8,104933,7,1,threat,threat,picture2.jpg,picture2.jpg,1,neutral,neutral,picture10.jpg,picture10.jpg,1,neutral,neutral,picture7.jpg,picture7.jpg,1,threat,threat,picture3.jpg,picture3.jpg,1,neutral,neutral,picture9.jpg,picture9.jpg,1,neutral,neutral,picture8.jpg,picture8.jpg,0,neutral,neutral,picture1.jpg,picture2.jpg,0,threat,neutral,picture4.jpg,picture1.jpg,1,threat,threat,picture1.jpg,picture1.jpg,0,neutral,threat,picture2.jpg,picture4.jpg
sub5,1,9,113687,8,1,threat,threat,picture2.jpg,picture2.jpg,1,neutral,neutral,picture10.jpg,picture10.jpg,1,neutral,neutral,picture7.jpg,picture7.jpg,1,threat,threat,picture3.jpg,picture3.jpg,1,neutral,neutral,picture9.jpg,picture9.jpg,1,neutral,neutral,picture8.jpg,picture8.jpg,0,threat,neutral,picture4.jpg,picture2.jpg,1,neutral,neutral,picture1.jpg,picture1.jpg,1,threat,threat,picture1.jpg,picture1.jpg,0,neutral,threat,picture2.jpg,picture4.jpg
sub5,1,10,118458,10,1,threat,threat,picture2.jpg,picture2.jpg,1,neutral,neutral,picture10.jpg,picture10.jpg,1,neutral,neutral,picture7.jpg,picture7.jpg,1,threat,threat,picture3.jpg,picture3.jpg,1,neutral,neutral,picture9.jpg,picture9.jpg,1,neutral,neutral,picture8.jpg,picture8.jpg,1,neutral,neutral,picture2.jpg,picture2.jpg,1,neutral,neutral,picture1.jpg,picture1.jpg,1,threat,threat,picture1.jpg,picture1.jpg,1,threat,threat,picture4.jpg,picture4.jpg
sub5,2,1,52491,10,1,threat,threat,picture2.jpg,picture2.jpg,1,neutral,neutral,picture10.jpg,picture10.jpg,1,neutral,neutral,picture7.jpg,picture7.jpg,1,threat,threat,picture3.jpg,picture3.jpg,1,neutral,neutral,picture9.jpg,picture9.jpg,1,neutral,neutral,picture8.jpg,picture8.jpg,1,neutral,neutral,picture2.jpg,picture2.jpg,1,neutral,neutral,picture1.jpg,picture1.jpg,1,threat,threat,picture1.jpg,picture1.jpg,1,threat,threat,picture4.jpg,picture4.jpg
sub5,3,1,41559,10,1,threat,threat,picture2.jpg,picture2.jpg,1,neutral,neutral,picture10.jpg,picture10.jpg,1,neutral,neutral,picture7.jpg,picture7.jpg,1,threat,threat,picture3.jpg,picture3.jpg,1,neutral,neutral,picture9.jpg,picture9.jpg,1,neutral,neutral,picture8.jpg,picture8.jpg,1,neutral,neutral,picture2.jpg,picture2.jpg,1,neutral,neutral,picture1.jpg,picture1.jpg,1,threat,threat,picture1.jpg,picture1.jpg,1,threat,threat,picture4.jpg,picture4.jpg
sub5,4,1,54676,10,1,threat,threat,picture2.jpg,picture2.jpg,1,neutral,neutral,picture10.jpg,picture10.jpg,1,neutral,neutral,picture7.jpg,picture7.jpg,1,threat,threat,picture3.jpg,picture3.jpg,1,neutral,neutral,picture9.jpg,picture9.jpg,1,neutral,neutral,picture8.jpg,picture8.jpg,1,neutral,neutral,picture2.jpg,picture2.jpg,1,neutral,neutral,picture1.jpg,picture1.jpg,1,threat,threat,picture1.jpg,picture1.jpg,1,threat,threat,picture4.jpg,picture4.jpg
sub6,1,1,24502,1,0,threat,threat,picture4.jpg,picture2.jpg,0,neutral,neutral,picture7.jpg,picture3.jpg,0,neutral,threat,picture9.jpg,picture1.jpg,0,threat,neutral,picture3.jpg,picture7.jpg,1,neutral,neutral,picture6.jpg,picture6.jpg,0,threat,neutral,picture1.jpg,picture1.jpg,0,neutral,threat,picture4.jpg,picture3.jpg,0,neutral,neutral,picture1.jpg,picture9.jpg,0,neutral,threat,picture3.jpg,picture4.jpg,0,threat,neutral,picture2.jpg,picture4.jpg
sub6,1,2,45887,1,0,neutral,threat,picture7.jpg,picture2.jpg,0,threat,neutral,picture4.jpg,picture3.jpg,0,neutral,threat,picture9.jpg,picture1.jpg,0,threat,neutral,picture3.jpg,picture7.jpg,1,neutral,neutral,picture6.jpg,picture6.jpg,0,neutral,neutral,picture4.jpg,picture1.jpg,0,threat,threat,picture1.jpg,picture3.jpg,0,neutral,neutral,picture1.jpg,picture9.jpg,0,neutral,threat,picture3.jpg,picture4.jpg,0,threat,neutral,picture2.jpg,picture4.jpg
sub6,1,3,48358,1,0,neutral,threat,picture7.jpg,picture2.jpg,0,threat,neutral,picture4.jpg,picture3.jpg,0,neutral,threat,picture9.jpg,picture1.jpg,0,threat,neutral,picture3.jpg,picture7.jpg,1,neutral,neutral,picture6.jpg,picture6.jpg,0,neutral,neutral,picture4.jpg,picture1.jpg,0,threat,threat,picture2.jpg,picture3.jpg,0,neutral,neutral,picture1.jpg,picture9.jpg,0,neutral,threat,picture3.jpg,picture4.jpg,0,threat,neutral,picture1.jpg,picture4.jpg
sub6,1,4,167366,1,0,neutral,threat,picture7.jpg,picture2.jpg,0,threat,neutral,picture4.jpg,picture3.jpg,0,neutral,threat,picture9.jpg,picture1.jpg,0,threat,neutral,picture3.jpg,picture7.jpg,1,neutral,neutral,picture6.jpg,picture6.jpg,0,neutral,neutral,picture4.jpg,picture1.jpg,0,threat,threat,picture1.jpg,picture3.jpg,0,neutral,neutral,picture1.jpg,picture9.jpg,0,neutral,threat,picture3.jpg,picture4.jpg,0,threat,neutral,picture2.jpg,picture4.jpg
sub6,1,5,169111,1,0,neutral,threat,picture7.jpg,picture2.jpg,0,threat,neutral,picture4.jpg,picture3.jpg,0,neutral,threat,picture9.jpg,picture1.jpg,0,threat,neutral,picture3.jpg,picture7.jpg,1,neutral,neutral,picture6.jpg,picture6.jpg,0,neutral,neutral,picture4.jpg,picture1.jpg,0,threat,threat,picture1.jpg,picture3.jpg,0,neutral,neutral,picture1.jpg,picture9.jpg,0,threat,threat,picture2.jpg,picture4.jpg,0,neutral,neutral,picture3.jpg,picture4.jpg
sub6,1,6,172010,1,0,neutral,threat,picture7.jpg,picture2.jpg,0,threat,neutral,picture4.jpg,picture3.jpg,0,neutral,threat,picture9.jpg,picture1.jpg,0,threat,neutral,picture3.jpg,picture7.jpg,1,neutral,neutral,picture6.jpg,picture6.jpg,0,neutral,neutral,picture4.jpg,picture1.jpg,0,neutral,threat,picture1.jpg,picture3.jpg,0,threat,neutral,picture1.jpg,picture9.jpg,0,threat,threat,picture2.jpg,picture4.jpg,0,neutral,neutral,picture3.jpg,picture4.jpg
sub6,1,7,333697,1,0,neutral,threat,picture7.jpg,picture2.jpg,0,threat,neutral,picture4.jpg,picture3.jpg,0,neutral,threat,picture9.jpg,picture1.jpg,0,threat,neutral,picture3.jpg,picture7.jpg,1,neutral,neutral,picture6.jpg,picture6.jpg,0,neutral,neutral,picture4.jpg,picture1.jpg,0,neutral,threat,picture1.jpg,picture3.jpg,0,threat,neutral,picture1.jpg,picture9.jpg,0,threat,threat,picture2.jpg,picture4.jpg,0,neutral,neutral,picture3.jpg,picture4.jpg
sub6,1,8,335887,1,0,neutral,threat,picture7.jpg,picture2.jpg,0,threat,neutral,picture4.jpg,picture3.jpg,0,neutral,threat,picture9.jpg,picture1.jpg,0,threat,neutral,picture3.jpg,picture7.jpg,1,neutral,neutral,picture6.jpg,picture6.jpg,0,neutral,neutral,picture4.jpg,picture1.jpg,0,neutral,threat,picture1.jpg,picture3.jpg,0,threat,neutral,picture1.jpg,picture9.jpg,0,threat,threat,picture2.jpg,picture4.jpg,0,neutral,neutral,picture3.jpg,picture4.jpg
sub6,1,9,338048,2,0,neutral,threat,picture7.jpg,picture2.jpg,0,threat,neutral,picture4.jpg,picture3.jpg,0,neutral,threat,picture9.jpg,picture1.jpg,0,threat,neutral,picture3.jpg,picture7.jpg,1,neutral,neutral,picture6.jpg,picture6.jpg,0,neutral,neutral,picture3.jpg,picture1.jpg,0,neutral,threat,picture1.jpg,picture3.jpg,0,threat,neutral,picture1.jpg,picture9.jpg,0,threat,threat,picture2.jpg,picture4.jpg,1,neutral,neutral,picture4.jpg,picture4.jpg
sub6,1,10,339887,2,0,neutral,threat,picture7.jpg,picture2.jpg,0,threat,neutral,picture4.jpg,picture3.jpg,0,neutral,threat,picture9.jpg,picture1.jpg,0,threat,neutral,picture3.jpg,picture7.jpg,1,neutral,neutral,picture6.jpg,picture6.jpg,0,neutral,neutral,picture3.jpg,picture1.jpg,0,threat,threat,picture2.jpg,picture3.jpg,0,threat,neutral,picture1.jpg,picture9.jpg,0,neutral,threat,picture1.jpg,picture4.jpg,1,neutral,neutral,picture4.jpg,picture4.jpg
sub6,1,11,342120,2,0,neutral,threat,picture7.jpg,picture2.jpg,0,threat,neutral,picture4.jpg,picture3.jpg,0,neutral,threat,picture9.jpg,picture1.jpg,0,threat,neutral,picture3.jpg,picture7.jpg,1,neutral,neutral,picture6.jpg,picture6.jpg,0,threat,neutral,picture1.jpg,picture1.jpg,0,threat,threat,picture2.jpg,picture3.jpg,0,neutral,neutral,picture3.jpg,picture9.jpg,0,neutral,threat,picture1.jpg,picture4.jpg,1,neutral,neutral,picture4.jpg,picture4.jpg
sub6,1,12,344143,2,0,neutral,threat,picture7.jpg,picture2.jpg,0,threat,neutral,picture4.jpg,picture3.jpg,0,neutral,threat,picture9.jpg,picture1.jpg,0,threat,neutral,picture3.jpg,picture7.jpg,1,neutral,neutral,picture6.jpg,picture6.jpg,0,threat,neutral,picture2.jpg,picture1.jpg,0,threat,threat,picture1.jpg,picture3.jpg,0,neutral,neutral,picture3.jpg,picture9.jpg,0,neutral,threat,picture1.jpg,picture4.jpg,1,neutral,neutral,picture4.jpg,picture4.jpg
sub6,1,13,346295,2,0,neutral,threat,picture7.jpg,picture2.jpg,0,threat,neutral,picture4.jpg,picture3.jpg,0,threat,threat,picture3.jpg,picture1.jpg,0,neutral,neutral,picture9.jpg,picture7.jpg,1,neutral,neutral,picture6.jpg,picture6.jpg,0,threat,neutral,picture2.jpg,picture1.jpg,0,threat,threat,picture1.jpg,picture3.jpg,0,neutral,neutral,picture3.jpg,picture9.jpg,0,neutral,threat,picture1.jpg,picture4.jpg,1,neutral,neutral,picture4.jpg,picture4.jpg
sub6,1,14,348361,2,0,neutral,threat,picture7.jpg,picture2.jpg,0,neutral,neutral,picture9.jpg,picture3.jpg,0,threat,threat,picture3.jpg,picture1.jpg,0,threat,neutral,picture4.jpg,picture7.jpg,1,neutral,neutral,picture6.jpg,picture6.jpg,0,threat,neutral,picture2.jpg,picture1.jpg,0,threat,threat,picture1.jpg,picture3.jpg,0,neutral,neutral,picture3.jpg,picture9.jpg,0,neutral,threat,picture1.jpg,picture4.jpg,1,neutral,neutral,picture4.jpg,picture4.jpg
sub6,1,15,350177,2,0,threat,threat,picture1.jpg,picture2.jpg,0,neutral,neutral,picture9.jpg,picture3.jpg,0,threat,threat,picture3.jpg,picture1.jpg,0,threat,neutral,picture4.jpg,picture7.jpg,1,neutral,neutral,picture6.jpg,picture6.jpg,0,threat,neutral,picture2.jpg,picture1.jpg,0,neutral,threat,picture7.jpg,picture3.jpg,0,neutral,neutral,picture3.jpg,picture9.jpg,0,neutral,threat,picture1.jpg,picture4.jpg,1,neutral,neutral,picture4.jpg,picture4.jpg
sub6,1,16,352864,2,0,threat,threat,picture1.jpg,picture2.jpg,0,neutral,neutral,picture9.jpg,picture3.jpg,0,threat,threat,picture3.jpg,picture1.jpg,0,threat,neutral,picture4.jpg,picture7.jpg,1,neutral,neutral,picture6.jpg,picture6.jpg,0,threat,neutral,picture2.jpg,picture1.jpg,0,neutral,threat,picture7.jpg,picture3.jpg,0,neutral,neutral,picture3.jpg,picture9.jpg,0,neutral,threat,picture1.jpg,picture4.jpg,1,neutral,neutral,picture4.jpg,picture4.jpg
sub6,1,17,354528,2,0,threat,threat,picture1.jpg,picture2.jpg,0,neutral,neutral,picture9.jpg,picture3.jpg,0,threat,threat,picture3.jpg,picture1.jpg,0,threat,neutral,picture4.jpg,picture7.jpg,1,neutral,neutral,picture6.jpg,picture6.jpg,0,threat,neutral,picture2.jpg,picture1.jpg,0,neutral,threat,picture7.jpg,picture3.jpg,0,neutral,neutral,picture1.jpg,picture9.jpg,0,neutral,threat,picture3.jpg,picture4.jpg,1,neutral,neutral,picture4.jpg,picture4.jpg
sub6,1,18,357112,3,0,threat,threat,picture3.jpg,picture2.jpg,0,neutral,neutral,picture9.jpg,picture3.jpg,1,threat,threat,picture1.jpg,picture1.jpg,0,threat,neutral,picture4.jpg,picture7.jpg,1,neutral,neutral,picture6.jpg,picture6.jpg,0,threat,neutral,picture2.jpg,picture1.jpg,0,neutral,threat,picture7.jpg,picture3.jpg,0,neutral,neutral,picture1.jpg,picture9.jpg,0,neutral,threat,picture3.jpg,picture4.jpg,1,neutral,neutral,picture4.jpg,picture4.jpg
sub6,1,19,359175,3,0,threat,threat,picture3.jpg,picture2.jpg,0,threat,neutral,picture4.jpg,picture3.jpg,1,threat,threat,picture1.jpg,picture1.jpg,0,neutral,neutral,picture9.jpg,picture7.jpg,1,neutral,neutral,picture6.jpg,picture6.jpg,0,threat,neutral,picture2.jpg,picture1.jpg,0,neutral,threat,picture7.jpg,picture3.jpg,0,neutral,neutral,picture1.jpg,picture9.jpg,0,neutral,threat,picture3.jpg,picture4.jpg,1,neutral,neutral,picture4.jpg,picture4.jpg
sub6,1,20,361431,3,0,threat,threat,picture4.jpg,picture2.jpg,0,threat,neutral,picture3.jpg,picture3.jpg,1,threat,threat,picture1.jpg,picture1.jpg,0,neutral,neutral,picture9.jpg,picture7.jpg,1,neutral,neutral,picture6.jpg,picture6.jpg,0,threat,neutral,picture2.jpg,picture1.jpg,0,neutral,threat,picture7.jpg,picture3.jpg,0,neutral,neutral,picture1.jpg,picture9.jpg,0,neutral,threat,picture3.jpg,picture4.jpg,1,neutral,neutral,picture4.jpg,picture4.jpg
sub6,1,21,364064,4,1,threat,threat,picture2.jpg,picture2.jpg,0,threat,neutral,picture3.jpg,picture3.jpg,1,threat,threat,picture1.jpg,picture1.jpg,0,neutral,neutral,picture9.jpg,picture7.jpg,1,neutral,neutral,picture6.jpg,picture6.jpg,0,threat,neutral,picture4.jpg,picture1.jpg,0,neutral,threat,picture7.jpg,picture3.jpg,0,neutral,neutral,picture1.jpg,picture9.jpg,0,neutral,threat,picture3.jpg,picture4.jpg,1,neutral,neutral,picture4.jpg,picture4.jpg
sub6,1,22,386021,5,1,threat,threat,picture2.jpg,picture2.jpg,0,threat,neutral,picture3.jpg,picture3.jpg,1,threat,threat,picture1.jpg,picture1.jpg,0,neutral,neutral,picture9.jpg,picture7.jpg,1,neutral,neutral,picture6.jpg,picture6.jpg,1,neutral,neutral,picture1.jpg,picture1.jpg,0,threat,threat,picture4.jpg,picture3.jpg,0,neutral,neutral,picture7.jpg,picture9.jpg,0,neutral,threat,picture3.jpg,picture4.jpg,1,neutral,neutral,picture4.jpg,picture4.jpg
sub6,1,23,389132,6,1,threat,threat,picture2.jpg,picture2.jpg,0,threat,neutral,picture3.jpg,picture3.jpg,1,threat,threat,picture1.jpg,picture1.jpg,0,neutral,neutral,picture9.jpg,picture7.jpg,1,neutral,neutral,picture6.jpg,picture6.jpg,1,neutral,neutral,picture1.jpg,picture1.jpg,0,neutral,threat,picture3.jpg,picture3.jpg,0,neutral,neutral,picture7.jpg,picture9.jpg,1,threat,threat,picture4.jpg,picture4.jpg,1,neutral,neutral,picture4.jpg,picture4.jpg
sub6,1,24,392449,6,1,threat,threat,picture2.jpg,picture2.jpg,0,threat,neutral,picture3.jpg,picture3.jpg,1,threat,threat,picture1.jpg,picture1.jpg,0,neutral,neutral,picture9.jpg,picture7.jpg,1,neutral,neutral,picture6.jpg,picture6.jpg,1,neutral,neutral,picture1.jpg,picture1.jpg,0,neutral,threat,picture7.jpg,picture3.jpg,0,neutral,neutral,picture3.jpg,picture9.jpg,1,threat,threat,picture4.jpg,picture4.jpg,1,neutral,neutral,picture4.jpg,picture4.jpg
sub6,1,25,395445,6,1,threat,threat,picture2.jpg,picture2.jpg,0,threat,neutral,picture3.jpg,picture3.jpg,1,threat,threat,picture1.jpg,picture1.jpg,0,neutral,neutral,picture9.jpg,picture7.jpg,1,neutral,neutral,picture6.jpg,picture6.jpg,1,neutral,neutral,picture1.jpg,picture1.jpg,0,neutral,threat,picture3.jpg,picture3.jpg,0,neutral,neutral,picture7.jpg,picture9.jpg,1,threat,threat,picture4.jpg,picture4.jpg,1,neutral,neutral,picture4.jpg,picture4.jpg
sub6,1,26,398426,8,1,threat,threat,picture2.jpg,picture2.jpg,1,neutral,neutral,picture3.jpg,picture3.jpg,1,threat,threat,picture1.jpg,picture1.jpg,0,neutral,neutral,picture9.jpg,picture7.jpg,1,neutral,neutral,picture6.jpg,picture6.jpg,1,neutral,neutral,picture1.jpg,picture1.jpg,1,threat,threat,picture3.jpg,picture3.jpg,0,neutral,neutral,picture7.jpg,picture9.jpg,1,threat,threat,picture4.jpg,picture4.jpg,1,neutral,neutral,picture4.jpg,picture4.jpg
sub6,1,27,401425,10,1,threat,threat,picture2.jpg,picture2.jpg,1,neutral,neutral,picture3.jpg,picture3.jpg,1,threat,threat,picture1.jpg,picture1.jpg,1,neutral,neutral,picture7.jpg,picture7.jpg,1,neutral,neutral,picture6.jpg,picture6.jpg,1,neutral,neutral,picture1.jpg,picture1.jpg,1,threat,threat,picture3.jpg,picture3.jpg,1,neutral,neutral,picture9.jpg,picture9.jpg,1,threat,threat,picture4.jpg,picture4.jpg,1,neutral,neutral,picture4.jpg,picture4.jpg
sub6,2,1,29116,10,1,threat,threat,picture2.jpg,picture2.jpg,1,neutral,neutral,picture3.jpg,picture3.jpg,1,threat,threat,picture1.jpg,picture1.jpg,1,neutral,neutral,picture7.jpg,picture7.jpg,1,neutral,neutral,picture6.jpg,picture6.jpg,1,neutral,neutral,picture1.jpg,picture1.jpg,1,threat,threat,picture3.jpg,picture3.jpg,1,neutral,neutral,picture9.jpg,picture9.jpg,1,threat,threat,picture4.jpg,picture4.jpg,1,neutral,neutral,picture4.jpg,picture4.jpg
sub6,3,1,55073,10,1,threat,threat,picture2.jpg,picture2.jpg,1,neutral,neutral,picture3.jpg,picture3.jpg,1,threat,threat,picture1.jpg,picture1.jpg,1,neutral,neutral,picture7.jpg,picture7.jpg,1,neutral,neutral,picture6.jpg,picture6.jpg,1,neutral,neutral,picture1.jpg,picture1.jpg,1,threat,threat,picture3.jpg,picture3.jpg,1,neutral,neutral,picture9.jpg,picture9.jpg,1,threat,threat,picture4.jpg,picture4.jpg,1,neutral,neutral,picture4.jpg,picture4.jpg
sub6,4,1,31599,10,1,threat,threat,picture2.jpg,picture2.jpg,1,neutral,neutral,picture3.jpg,picture3.jpg,1,threat,threat,picture1.jpg,picture1.jpg,1,neutral,neutral,picture7.jpg,picture7.jpg,1,neutral,neutral,picture6.jpg,picture6.jpg,1,neutral,neutral,picture1.jpg,picture1.jpg,1,threat,threat,picture3.jpg,picture3.jpg,1,neutral,neutral,picture9.jpg,picture9.jpg,1,threat,threat,picture4.jpg,picture4.jpg,1,neutral,neutral,picture4.jpg,picture4.jpg
sub7,1,1,84660,1,0,neutral,neutral,picture2.jpg,picture8.jpg,0,neutral,threat,picture5.jpg,picture2.jpg,0,neutral,threat,picture6.jpg,picture4.jpg,1,neutral,neutral,picture1.jpg,picture1.jpg,0,threat,neutral,picture1.jpg,picture2.jpg,0,neutral,neutral,picture10.jpg,picture6.jpg,0,threat,threat,picture3.jpg,picture1.jpg,0,threat,threat,picture4.jpg,picture3.jpg,0,neutral,neutral,picture8.jpg,picture5.jpg,0,threat,neutral,picture2.jpg,picture10.jpg
sub7,1,2,110450,1,0,neutral,neutral,picture5.jpg,picture8.jpg,0,neutral,threat,picture2.jpg,picture2.jpg,0,threat,threat,picture1.jpg,picture4.jpg,1,neutral,neutral,picture1.jpg,picture1.jpg,0,neutral,neutral,picture6.jpg,picture2.jpg,0,threat,neutral,picture3.jpg,picture6.jpg,0,neutral,threat,picture10.jpg,picture1.jpg,0,threat,threat,picture4.jpg,picture3.jpg,0,threat,neutral,picture2.jpg,picture5.jpg,0,neutral,neutral,picture8.jpg,picture10.jpg
sub7,1,3,113757,1,0,neutral,neutral,picture5.jpg,picture8.jpg,0,neutral,threat,picture2.jpg,picture2.jpg,0,threat,threat,picture1.jpg,picture4.jpg,1,neutral,neutral,picture1.jpg,picture1.jpg,0,neutral,neutral,picture6.jpg,picture2.jpg,0,threat,neutral,picture3.jpg,picture6.jpg,0,neutral,threat,picture10.jpg,picture1.jpg,0,threat,threat,picture4.jpg,picture3.jpg,0,threat,neutral,picture2.jpg,picture5.jpg,0,neutral,neutral,picture8.jpg,picture10.jpg
sub7,1,4,114814,1,0,neutral,neutral,picture5.jpg,picture8.jpg,0,neutral,threat,picture2.jpg,picture2.jpg,0,threat,threat,picture1.jpg,picture4.jpg,1,neutral,neutral,picture1.jpg,picture1.jpg,0,neutral,neutral,picture6.jpg,picture2.jpg,0,threat,neutral,picture3.jpg,picture6.jpg,0,neutral,threat,picture10.jpg,picture1.jpg,0,threat,threat,picture4.jpg,picture3.jpg,0,threat,neutral,picture2.jpg,picture5.jpg,0,neutral,neutral,picture8.jpg,picture10.jpg
sub7,1,5,118530,1,0,neutral,neutral,picture5.jpg,picture8.jpg,0,neutral,threat,picture2.jpg,picture2.jpg,0,threat,threat,picture1.jpg,picture4.jpg,1,neutral,neutral,picture1.jpg,picture1.jpg,0,neutral,neutral,picture10.jpg,picture2.jpg,0,threat,neutral,picture3.jpg,picture6.jpg,0,neutral,threat,picture6.jpg,picture1.jpg,0,threat,threat,picture4.jpg,picture3.jpg,0,threat,neutral,picture2.jpg,picture5.jpg,0,neutral,neutral,picture8.jpg,picture10.jpg
sub7,1,6,126150,1,0,neutral,neutral,picture5.jpg,picture8.jpg,0,neutral,threat,picture2.jpg,picture2.jpg,0,neutral,threat,picture10.jpg,picture4.jpg,1,neutral,neutral,picture1.jpg,picture1.jpg,0,threat,neutral,picture1.jpg,picture2.jpg,0,threat,neutral,picture3.jpg,picture6.jpg,0,neutral,threat,picture6.jpg,picture1.jpg,0,threat,threat,picture4.jpg,picture3.jpg,0,threat,neutral,picture2.jpg,picture5.jpg,0,neutral,neutral,picture8.jpg,picture10.jpg
sub7,1,7,129527,1,0,neutral,neutral,picture5.jpg,picture8.jpg,0,neutral,threat,picture10.jpg,picture2.jpg,0,neutral,threat,picture2.jpg,picture4.jpg,1,neutral,neutral,picture1.jpg,picture1.jpg,0,threat,neutral,picture1.jpg,picture2.jpg,0,threat,neutral,picture3.jpg,picture6.jpg,0,neutral,threat,picture6.jpg,picture1.jpg,0,threat,threat,picture4.jpg,picture3.jpg,0,threat,neutral,picture2.jpg,picture5.jpg,0,neutral,neutral,picture8.jpg,picture10.jpg
sub7,1,8,132778,1,0,neutral,neutral,picture10.jpg,picture8.jpg,0,neutral,threat,picture5.jpg,picture2.jpg,0,neutral,threat,picture2.jpg,picture4.jpg,1,neutral,neutral,picture1.jpg,picture1.jpg,0,threat,neutral,picture1.jpg,picture2.jpg,0,threat,neutral,picture3.jpg,picture6.jpg,0,neutral,threat,picture6.jpg,picture1.jpg,0,threat,threat,picture4.jpg,picture3.jpg,0,threat,neutral,picture2.jpg,picture5.jpg,0,neutral,neutral,picture8.jpg,picture10.jpg
sub7,1,9,138753,1,0,threat,neutral,picture1.jpg,picture8.jpg,0,neutral,threat,picture5.jpg,picture2.jpg,0,neutral,threat,picture2.jpg,picture4.jpg,1,neutral,neutral,picture1.jpg,picture1.jpg,0,neutral,neutral,picture10.jpg,picture2.jpg,0,threat,neutral,picture3.jpg,picture6.jpg,0,neutral,threat,picture6.jpg,picture1.jpg,0,threat,threat,picture4.jpg,picture3.jpg,0,threat,neutral,picture2.jpg,picture5.jpg,0,neutral,neutral,picture8.jpg,picture10.jpg
sub7,1,10,141903,2,0,threat,neutral,picture1.jpg,picture8.jpg,0,neutral,threat,picture5.jpg,picture2.jpg,0,neutral,threat,picture2.jpg,picture4.jpg,1,neutral,neutral,picture1.jpg,picture1.jpg,0,neutral,neutral,picture8.jpg,picture2.jpg,0,threat,neutral,picture3.jpg,picture6.jpg,0,neutral,threat,picture6.jpg,picture1.jpg,0,threat,threat,picture4.jpg,picture3.jpg,0,threat,neutral,picture2.jpg,picture5.jpg,1,neutral,neutral,picture10.jpg,picture10.jpg
sub7,1,11,146128,2,0,threat,neutral,picture1.jpg,picture8.jpg,0,neutral,threat,picture5.jpg,picture2.jpg,0,neutral,threat,picture2.jpg,picture4.jpg,1,neutral,neutral,picture1.jpg,picture1.jpg,0,neutral,neutral,picture6.jpg,picture2.jpg,0,threat,neutral,picture3.jpg,picture6.jpg,0,neutral,threat,picture8.jpg,picture1.jpg,0,threat,threat,picture4.jpg,picture3.jpg,0,threat,neutral,picture2.jpg,picture5.jpg,1,neutral,neutral,picture10.jpg,picture10.jpg
sub7,1,12,149339,2,0,threat,neutral,picture1.jpg,picture8.jpg,0,neutral,threat,picture5.jpg,picture2.jpg,0,neutral,threat,picture2.jpg,picture4.jpg,1,neutral,neutral,picture1.jpg,picture1.jpg,0,neutral,neutral,picture6.jpg,picture2.jpg,0,threat,neutral,picture3.jpg,picture6.jpg,0,threat,threat,picture4.jpg,picture1.jpg,0,neutral,threat,picture8.jpg,picture3.jpg,0,threat,neutral,picture2.jpg,picture5.jpg,1,neutral,neutral,picture10.jpg,picture10.jpg
sub7,1,13,152369,3,0,threat,neutral,picture1.jpg,picture8.jpg,0,neutral,threat,picture5.jpg,picture2.jpg,0,neutral,threat,picture2.jpg,picture4.jpg,1,neutral,neutral,picture1.jpg,picture1.jpg,0,neutral,neutral,picture6.jpg,picture2.jpg,0,neutral,neutral,picture8.jpg,picture6.jpg,0,threat,threat,picture4.jpg,picture1.jpg,1,threat,threat,picture3.jpg,picture3.jpg,0,threat,neutral,picture2.jpg,picture5.jpg,1,neutral,neutral,picture10.jpg,picture10.jpg
sub7,1,14,156385,3,0,threat,neutral,picture1.jpg,picture8.jpg,0,neutral,threat,picture5.jpg,picture2.jpg,0,neutral,threat,picture2.jpg,picture4.jpg,1,neutral,neutral,picture1.jpg,picture1.jpg,0,neutral,neutral,picture6.jpg,picture2.jpg,0,threat,neutral,picture2.jpg,picture6.jpg,0,threat,threat,picture4.jpg,picture1.jpg,1,threat,threat,picture3.jpg,picture3.jpg,0,neutral,neutral,picture8.jpg,picture5.jpg,1,neutral,neutral,picture10.jpg,picture10.jpg
sub7,1,15,160391,3,0,threat,neutral,picture1.jpg,picture8.jpg,0,neutral,threat,picture5.jpg,picture2.jpg,0,neutral,threat,picture2.jpg,picture4.jpg,1,neutral,neutral,picture1.jpg,picture1.jpg,0,neutral,neutral,picture6.jpg,picture2.jpg,0,threat,neutral,picture4.jpg,picture6.jpg,0,threat,threat,picture2.jpg,picture1.jpg,1,threat,threat,picture3.jpg,picture3.jpg,0,neutral,neutral,picture8.jpg,picture5.jpg,1,neutral,neutral,picture10.jpg,picture10.jpg
sub7,1,16,164494,4,1,neutral,neutral,picture8.jpg,picture8.jpg,0,neutral,threat,picture5.jpg,picture2.jpg,0,neutral,threat,picture2.jpg,picture4.jpg,1,neutral,neutral,picture1.jpg,picture1.jpg,0,neutral,neutral,picture6.jpg,picture2.jpg,0,threat,neutral,picture4.jpg,picture6.jpg,0,threat,threat,picture2.jpg,picture1.jpg,1,threat,threat,picture3.jpg,picture3.jpg,0,threat,neutral,picture1.jpg,picture5.jpg,1,neutral,neutral,picture10.jpg,picture10.jpg
sub7,1,17,168917,5,1,neutral,neutral,picture8.jpg,picture8.jpg,0,neutral,threat,picture5.jpg,picture2.jpg,1,threat,threat,picture4.jpg,picture4.jpg,1,neutral,neutral,picture1.jpg,picture1.jpg,0,neutral,neutral,picture6.jpg,picture2.jpg,0,neutral,neutral,picture2.jpg,picture6.jpg,0,threat,threat,picture2.jpg,picture1.jpg,1,threat,threat,picture3.jpg,picture3.jpg,0,threat,neutral,picture1.jpg,picture5.jpg,1,neutral,neutral,picture10.jpg,picture10.jpg
sub7,1,18,174239,5,1,neutral,neutral,picture8.jpg,picture8.jpg,0,neutral,threat,picture6.jpg,picture2.jpg,1,threat,threat,picture4.jpg,picture4.jpg,1,neutral,neutral,picture1.jpg,picture1.jpg,0,neutral,neutral,picture5.jpg,picture2.jpg,0,neutral,neutral,picture2.jpg,picture6.jpg,0,threat,threat,picture2.jpg,picture1.jpg,1,threat,threat,picture3.jpg,picture3.jpg,0,threat,neutral,picture1.jpg,picture5.jpg,1,neutral,neutral,picture10.jpg,picture10.jpg
sub7,1,19,176911,5,1,neutral,neutral,picture8.jpg,picture8.jpg,0,neutral,threat,picture6.jpg,picture2.jpg,1,threat,threat,picture4.jpg,picture4.jpg,1,neutral,neutral,picture1.jpg,picture1.jpg,0,threat,neutral,picture2.jpg,picture2.jpg,0,neutral,neutral,picture2.jpg,picture6.jpg,0,neutral,threat,picture5.jpg,picture1.jpg,1,threat,threat,picture3.jpg,picture3.jpg,0,threat,neutral,picture1.jpg,picture5.jpg,1,neutral,neutral,picture10.jpg,picture10.jpg
sub7,1,20,180027,7,1,neutral,neutral,picture8.jpg,picture8.jpg,0,neutral,threat,picture6.jpg,picture2.jpg,1,threat,threat,picture4.jpg,picture4.jpg,1,neutral,neutral,picture1.jpg,picture1.jpg,0,threat,neutral,picture2.jpg,picture2.jpg,0,neutral,neutral,picture2.jpg,picture6.jpg,1,threat,threat,picture1.jpg,picture1.jpg,1,threat,threat,picture3.jpg,picture3.jpg,1,neutral,neutral,picture5.jpg,picture5.jpg,1,neutral,neutral,picture10.jpg,picture10.jpg
sub7,1,21,189966,7,1,neutral,neutral,picture8.jpg,picture8.jpg,0,neutral,threat,picture2.jpg,picture2.jpg,1,threat,threat,picture4.jpg,picture4.jpg,1,neutral,neutral,picture1.jpg,picture1.jpg,0,neutral,neutral,picture6.jpg,picture2.jpg,0,threat,neutral,picture2.jpg,picture6.jpg,1,threat,threat,picture1.jpg,picture1.jpg,1,threat,threat,picture3.jpg,picture3.jpg,1,neutral,neutral,picture5.jpg,picture5.jpg,1,neutral,neutral,picture10.jpg,picture10.jpg
sub7,1,22,193303,8,1,neutral,neutral,picture8.jpg,picture8.jpg,0,neutral,threat,picture2.jpg,picture2.jpg,1,threat,threat,picture4.jpg,picture4.jpg,1,neutral,neutral,picture1.jpg,picture1.jpg,0,threat,neutral,picture2.jpg,picture2.jpg,1,neutral,neutral,picture6.jpg,picture6.jpg,1,threat,threat,picture1.jpg,picture1.jpg,1,threat,threat,picture3.jpg,picture3.jpg,1,neutral,neutral,picture5.jpg,picture5.jpg,1,neutral,neutral,picture10.jpg,picture10.jpg
sub7,1,23,197565,10,1,neutral,neutral,picture8.jpg,picture8.jpg,1,threat,threat,picture2.jpg,picture2.jpg,1,threat,threat,picture4.jpg,picture4.jpg,1,neutral,neutral,picture1.jpg,picture1.jpg,1,neutral,neutral,picture2.jpg,picture2.jpg,1,neutral,neutral,picture6.jpg,picture6.jpg,1,threat,threat,picture1.jpg,picture1.jpg,1,threat,threat,picture3.jpg,picture3.jpg,1,neutral,neutral,picture5.jpg,picture5.jpg,1,neutral,neutral,picture10.jpg,picture10.jpg
sub7,2,1,43504,10,1,neutral,neutral,picture8.jpg,picture8.jpg,1,threat,threat,picture2.jpg,picture2.jpg,1,threat,threat,picture4.jpg,picture4.jpg,1,neutral,neutral,picture1.jpg,picture1.jpg,1,neutral,neutral,picture2.jpg,picture2.jpg,1,neutral,neutral,picture6.jpg,picture6.jpg,1,threat,threat,picture1.jpg,picture1.jpg,1,threat,threat,picture3.jpg,picture3.jpg,1,neutral,neutral,picture5.jpg,picture5.jpg,1,neutral,neutral,picture10.jpg,picture10.jpg
sub7,3,1,38630,10,1,neutral,neutral,picture8.jpg,picture8.jpg,1,threat,threat,picture2.jpg,picture2.jpg,1,threat,threat,picture4.jpg,picture4.jpg,1,neutral,neutral,picture1.jpg,picture1.jpg,1,neutral,neutral,picture2.jpg,picture2.jpg,1,neutral,neutral,picture6.jpg,picture6.jpg,1,threat,threat,picture1.jpg,picture1.jpg,1,threat,threat,picture3.jpg,picture3.jpg,1,neutral,neutral,picture5.jpg,picture5.jpg,1,neutral,neutral,picture10.jpg,picture10.jpg
sub7,4,1,28741,10,1,neutral,neutral,picture8.jpg,picture8.jpg,1,threat,threat,picture2.jpg,picture2.jpg,1,threat,threat,picture4.jpg,picture4.jpg,1,neutral,neutral,picture1.jpg,picture1.jpg,1,neutral,neutral,picture2.jpg,picture2.jpg,1,neutral,neutral,picture6.jpg,picture6.jpg,1,threat,threat,picture1.jpg,picture1.jpg,1,threat,threat,picture3.jpg,picture3.jpg,1,neutral,neutral,picture5.jpg,picture5.jpg,1,neutral,neutral,picture10.jpg,picture10.jpg
sub8,1,1,451501,0,0,neutral,neutral,picture1.jpg,picture7.jpg,0,threat,threat,picture1.jpg,picture4.jpg,0,threat,threat,picture2.jpg,picture3.jpg,0,neutral,neutral,picture5.jpg,picture6.jpg,0,neutral,neutral,picture6.jpg,picture5.jpg,0,threat,neutral,picture3.jpg,picture10.jpg,0,neutral,threat,picture7.jpg,picture1.jpg,0,neutral,neutral,picture10.jpg,picture1.jpg,0,neutral,threat,picture8.jpg,picture2.jpg,0,threat,neutral,picture4.jpg,picture8.jpg
sub8,1,2,746280,0,0,threat,neutral,picture3.jpg,picture7.jpg,0,threat,threat,picture1.jpg,picture4.jpg,0,threat,threat,picture2.jpg,picture3.jpg,0,threat,neutral,picture4.jpg,picture6.jpg,0,neutral,neutral,picture7.jpg,picture5.jpg,0,neutral,neutral,picture1.jpg,picture10.jpg,0,neutral,threat,picture5.jpg,picture1.jpg,0,neutral,neutral,picture10.jpg,picture1.jpg,0,neutral,threat,picture8.jpg,picture2.jpg,0,neutral,neutral,picture6.jpg,picture8.jpg
sub8,1,3,762795,2,0,neutral,neutral,picture1.jpg,picture7.jpg,0,neutral,threat,picture5.jpg,picture4.jpg,0,neutral,threat,picture8.jpg,picture3.jpg,1,neutral,neutral,picture6.jpg,picture6.jpg,0,neutral,neutral,picture7.jpg,picture5.jpg,0,threat,neutral,picture3.jpg,picture10.jpg,0,threat,threat,picture4.jpg,picture1.jpg,0,neutral,neutral,picture10.jpg,picture1.jpg,1,threat,threat,picture2.jpg,picture2.jpg,0,threat,neutral,picture1.jpg,picture8.jpg
sub8,1,4,774853,3,1,neutral,neutral,picture7.jpg,picture7.jpg,0,neutral,threat,picture5.jpg,picture4.jpg,0,neutral,threat,picture8.jpg,picture3.jpg,1,neutral,neutral,picture6.jpg,picture6.jpg,0,neutral,neutral,picture1.jpg,picture5.jpg,0,threat,neutral,picture3.jpg,picture10.jpg,0,threat,threat,picture4.jpg,picture1.jpg,0,neutral,neutral,picture10.jpg,picture1.jpg,1,threat,threat,picture2.jpg,picture2.jpg,0,threat,neutral,picture1.jpg,picture8.jpg
sub8,1,5,798543,2,1,neutral,neutral,picture7.jpg,picture7.jpg,0,neutral,threat,picture8.jpg,picture4.jpg,0,neutral,threat,picture5.jpg,picture3.jpg,1,neutral,neutral,picture6.jpg,picture6.jpg,0,neutral,neutral,picture1.jpg,picture5.jpg,0,threat,neutral,picture2.jpg,picture10.jpg,0,neutral,threat,picture10.jpg,picture1.jpg,0,threat,neutral,picture4.jpg,picture1.jpg,0,threat,threat,picture3.jpg,picture2.jpg,0,threat,neutral,picture1.jpg,picture8.jpg
sub8,1,6,800431,2,1,neutral,neutral,picture7.jpg,picture7.jpg,0,neutral,threat,picture8.jpg,picture4.jpg,0,neutral,threat,picture5.jpg,picture3.jpg,1,neutral,neutral,picture6.jpg,picture6.jpg,0,neutral,neutral,picture1.jpg,picture5.jpg,0,threat,neutral,picture2.jpg,picture10.jpg,0,neutral,threat,picture10.jpg,picture1.jpg,0,threat,neutral,picture4.jpg,picture1.jpg,0,threat,threat,picture3.jpg,picture2.jpg,0,threat,neutral,picture1.jpg,picture8.jpg
sub8,1,7,803773,3,1,neutral,neutral,picture7.jpg,picture7.jpg,0,neutral,threat,picture8.jpg,picture4.jpg,0,neutral,threat,picture5.jpg,picture3.jpg,1,neutral,neutral,picture6.jpg,picture6.jpg,0,neutral,neutral,picture1.jpg,picture5.jpg,0,threat,neutral,picture2.jpg,picture10.jpg,1,threat,threat,picture1.jpg,picture1.jpg,0,threat,neutral,picture4.jpg,picture1.jpg,0,threat,threat,picture3.jpg,picture2.jpg,0,neutral,neutral,picture10.jpg,picture8.jpg
sub8,1,8,811100,3,1,neutral,neutral,picture7.jpg,picture7.jpg,0,neutral,threat,picture8.jpg,picture4.jpg,0,neutral,threat,picture5.jpg,picture3.jpg,1,neutral,neutral,picture6.jpg,picture6.jpg,0,threat,neutral,picture2.jpg,picture5.jpg,0,neutral,neutral,picture1.jpg,picture10.jpg,1,threat,threat,picture1.jpg,picture1.jpg,0,threat,neutral,picture4.jpg,picture1.jpg,0,threat,threat,picture3.jpg,picture2.jpg,0,neutral,neutral,picture10.jpg,picture8.jpg
sub8,1,9,815278,4,1,neutral,neutral,picture7.jpg,picture7.jpg,0,neutral,threat,picture10.jpg,picture4.jpg,0,neutral,threat,picture5.jpg,picture3.jpg,1,neutral,neutral,picture6.jpg,picture6.jpg,0,threat,neutral,picture2.jpg,picture5.jpg,0,neutral,neutral,picture1.jpg,picture10.jpg,1,threat,threat,picture1.jpg,picture1.jpg,0,threat,neutral,picture4.jpg,picture1.jpg,0,threat,threat,picture3.jpg,picture2.jpg,1,neutral,neutral,picture8.jpg,picture8.jpg
sub8,1,10,820224,5,1,neutral,neutral,picture7.jpg,picture7.jpg,0,neutral,threat,picture10.jpg,picture4.jpg,0,threat,threat,picture2.jpg,picture3.jpg,1,neutral,neutral,picture6.jpg,picture6.jpg,1,neutral,neutral,picture5.jpg,picture5.jpg,0,neutral,neutral,picture1.jpg,picture10.jpg,1,threat,threat,picture1.jpg,picture1.jpg,0,threat,neutral,picture4.jpg,picture1.jpg,0,threat,threat,picture3.jpg,picture2.jpg,1,neutral,neutral,picture8.jpg,picture8.jpg
sub8,1,11,827740,5,1,neutral,neutral,picture7.jpg,picture7.jpg,0,threat,threat,picture3.jpg,picture4.jpg,0,threat,threat,picture2.jpg,picture3.jpg,1,neutral,neutral,picture6.jpg,picture6.jpg,1,neutral,neutral,picture5.jpg,picture5.jpg,0,neutral,neutral,picture1.jpg,picture10.jpg,1,threat,threat,picture1.jpg,picture1.jpg,0,threat,neutral,picture4.jpg,picture1.jpg,0,neutral,threat,picture10.jpg,picture2.jpg,1,neutral,neutral,picture8.jpg,picture8.jpg
sub8,1,12,831568,6,1,neutral,neutral,picture7.jpg,picture7.jpg,0,threat,threat,picture2.jpg,picture4.jpg,1,threat,threat,picture3.jpg,picture3.jpg,1,neutral,neutral,picture6.jpg,picture6.jpg,1,neutral,neutral,picture5.jpg,picture5.jpg,0,neutral,neutral,picture1.jpg,picture10.jpg,1,threat,threat,picture1.jpg,picture1.jpg,0,threat,neutral,picture4.jpg,picture1.jpg,0,neutral,threat,picture10.jpg,picture2.jpg,1,neutral,neutral,picture8.jpg,picture8.jpg
sub8,1,13,837273,7,1,neutral,neutral,picture7.jpg,picture7.jpg,1,threat,threat,picture4.jpg,picture4.jpg,1,threat,threat,picture3.jpg,picture3.jpg,1,neutral,neutral,picture6.jpg,picture6.jpg,1,neutral,neutral,picture5.jpg,picture5.jpg,0,neutral,neutral,picture1.jpg,picture10.jpg,1,threat,threat,picture1.jpg,picture1.jpg,0,threat,neutral,picture2.jpg,picture1.jpg,0,neutral,threat,picture10.jpg,picture2.jpg,1,neutral,neutral,picture8.jpg,picture8.jpg
sub8,1,14,848083,10,1,neutral,neutral,picture7.jpg,picture7.jpg,1,threat,threat,picture4.jpg,picture4.jpg,1,threat,threat,picture3.jpg,picture3.jpg,1,neutral,neutral,picture6.jpg,picture6.jpg,1,neutral,neutral,picture5.jpg,picture5.jpg,1,neutral,neutral,picture10.jpg,picture10.jpg,1,threat,threat,picture1.jpg,picture1.jpg,1,neutral,neutral,picture1.jpg,picture1.jpg,1,threat,threat,picture2.jpg,picture2.jpg,1,neutral,neutral,picture8.jpg,picture8.jpg
sub8,2,1,35484,10,1,neutral,neutral,picture7.jpg,picture7.jpg,1,threat,threat,picture4.jpg,picture4.jpg,1,threat,threat,picture3.jpg,picture3.jpg,1,neutral,neutral,picture6.jpg,picture6.jpg,1,neutral,neutral,picture5.jpg,picture5.jpg,1,neutral,neutral,picture10.jpg,picture10.jpg,1,threat,threat,picture1.jpg,picture1.jpg,1,neutral,neutral,picture1.jpg,picture1.jpg,1,threat,threat,picture2.jpg,picture2.jpg,1,neutral,neutral,picture8.jpg,picture8.jpg
sub8,3,1,28589,10,1,neutral,neutral,picture7.jpg,picture7.jpg,1,threat,threat,picture4.jpg,picture4.jpg,1,threat,threat,picture3.jpg,picture3.jpg,1,neutral,neutral,picture6.jpg,picture6.jpg,1,neutral,neutral,picture5.jpg,picture5.jpg,1,neutral,neutral,picture10.jpg,picture10.jpg,1,threat,threat,picture1.jpg,picture1.jpg,1,neutral,neutral,picture1.jpg,picture1.jpg,1,threat,threat,picture2.jpg,picture2.jpg,1,neutral,neutral,picture8.jpg,picture8.jpg
sub8,4,1,37595,10,1,neutral,neutral,picture7.jpg,picture7.jpg,1,threat,threat,picture4.jpg,picture4.jpg,1,threat,threat,picture3.jpg,picture3.jpg,1,neutral,neutral,picture6.jpg,picture6.jpg,1,neutral,neutral,picture5.jpg,picture5.jpg,1,neutral,neutral,picture10.jpg,picture10.jpg,1,threat,threat,picture1.jpg,picture1.jpg,1,neutral,neutral,picture1.jpg,picture1.jpg,1,threat,threat,picture2.jpg,picture2.jpg,1,neutral,neutral,picture8.jpg,picture8.jpg
sub9,1,1,34747,2,0,neutral,threat,picture7.jpg,picture2.jpg,0,threat,neutral,picture2.jpg,picture9.jpg,0,neutral,threat,picture8.jpg,picture1.jpg,0,neutral,neutral,picture9.jpg,picture1.jpg,0,neutral,neutral,picture1.jpg,picture7.jpg,0,threat,neutral,picture1.jpg,picture2.jpg,1,threat,threat,picture3.jpg,picture3.jpg,0,neutral,threat,picture2.jpg,picture4.jpg,0,threat,neutral,picture4.jpg,picture8.jpg,1,neutral,neutral,picture10.jpg,picture10.jpg
sub9,1,2,48673,3,0,neutral,threat,picture7.jpg,picture2.jpg,0,threat,neutral,picture2.jpg,picture9.jpg,0,neutral,threat,picture8.jpg,picture1.jpg,0,neutral,neutral,picture9.jpg,picture1.jpg,0,neutral,neutral,picture1.jpg,picture7.jpg,0,threat,neutral,picture1.jpg,picture2.jpg,1,threat,threat,picture3.jpg,picture3.jpg,1,threat,threat,picture4.jpg,picture4.jpg,0,neutral,neutral,picture2.jpg,picture8.jpg,1,neutral,neutral,picture10.jpg,picture10.jpg
sub9,1,3,53966,4,0,neutral,threat,picture7.jpg,picture2.jpg,0,threat,neutral,picture2.jpg,picture9.jpg,0,neutral,threat,picture8.jpg,picture1.jpg,0,neutral,neutral,picture9.jpg,picture1.jpg,0,neutral,neutral,picture1.jpg,picture7.jpg,1,neutral,neutral,picture2.jpg,picture2.jpg,1,threat,threat,picture3.jpg,picture3.jpg,1,threat,threat,picture4.jpg,picture4.jpg,0,threat,neutral,picture1.jpg,picture8.jpg,1,neutral,neutral,picture10.jpg,picture10.jpg
sub9,1,4,58764,5,1,threat,threat,picture2.jpg,picture2.jpg,0,neutral,neutral,picture7.jpg,picture9.jpg,0,neutral,threat,picture8.jpg,picture1.jpg,0,neutral,neutral,picture9.jpg,picture1.jpg,0,neutral,neutral,picture1.jpg,picture7.jpg,1,neutral,neutral,picture2.jpg,picture2.jpg,1,threat,threat,picture3.jpg,picture3.jpg,1,threat,threat,picture4.jpg,picture4.jpg,0,threat,neutral,picture1.jpg,picture8.jpg,1,neutral,neutral,picture10.jpg,picture10.jpg
sub9,1,5,63057,5,1,threat,threat,picture2.jpg,picture2.jpg,0,neutral,neutral,picture8.jpg,picture9.jpg,0,neutral,threat,picture7.jpg,picture1.jpg,0,neutral,neutral,picture9.jpg,picture1.jpg,0,neutral,neutral,picture1.jpg,picture7.jpg,1,neutral,neutral,picture2.jpg,picture2.jpg,1,threat,threat,picture3.jpg,picture3.jpg,1,threat,threat,picture4.jpg,picture4.jpg,0,threat,neutral,picture1.jpg,picture8.jpg,1,neutral,neutral,picture10.jpg,picture10.jpg
sub9,1,6,66815,6,1,threat,threat,picture2.jpg,picture2.jpg,0,neutral,neutral,picture8.jpg,picture9.jpg,0,neutral,threat,picture7.jpg,picture1.jpg,1,neutral,neutral,picture1.jpg,picture1.jpg,0,neutral,neutral,picture9.jpg,picture7.jpg,1,neutral,neutral,picture2.jpg,picture2.jpg,1,threat,threat,picture3.jpg,picture3.jpg,1,threat,threat,picture4.jpg,picture4.jpg,0,threat,neutral,picture1.jpg,picture8.jpg,1,neutral,neutral,picture10.jpg,picture10.jpg
sub9,1,7,70713,7,1,threat,threat,picture2.jpg,picture2.jpg,0,neutral,neutral,picture8.jpg,picture9.jpg,0,neutral,threat,picture9.jpg,picture1.jpg,1,neutral,neutral,picture1.jpg,picture1.jpg,1,neutral,neutral,picture7.jpg,picture7.jpg,1,neutral,neutral,picture2.jpg,picture2.jpg,1,threat,threat,picture3.jpg,picture3.jpg,1,threat,threat,picture4.jpg,picture4.jpg,0,threat,neutral,picture1.jpg,picture8.jpg,1,neutral,neutral,picture10.jpg,picture10.jpg
sub9,1,8,75801,8,1,threat,threat,picture2.jpg,picture2.jpg,0,threat,neutral,picture1.jpg,picture9.jpg,0,neutral,threat,picture9.jpg,picture1.jpg,1,neutral,neutral,picture1.jpg,picture1.jpg,1,neutral,neutral,picture7.jpg,picture7.jpg,1,neutral,neutral,picture2.jpg,picture2.jpg,1,threat,threat,picture3.jpg,picture3.jpg,1,threat,threat,picture4.jpg,picture4.jpg,1,neutral,neutral,picture8.jpg,picture8.jpg,1,neutral,neutral,picture10.jpg,picture10.jpg
sub9,1,9,79464,10,1,threat,threat,picture2.jpg,picture2.jpg,1,neutral,neutral,picture9.jpg,picture9.jpg,1,threat,threat,picture1.jpg,picture1.jpg,1,neutral,neutral,picture1.jpg,picture1.jpg,1,neutral,neutral,picture7.jpg,picture7.jpg,1,neutral,neutral,picture2.jpg,picture2.jpg,1,threat,threat,picture3.jpg,picture3.jpg,1,threat,threat,picture4.jpg,picture4.jpg,1,neutral,neutral,picture8.jpg,picture8.jpg,1,neutral,neutral,picture10.jpg,picture10.jpg
sub9,2,1,50741,10,1,threat,threat,picture2.jpg,picture2.jpg,1,neutral,neutral,picture9.jpg,picture9.jpg,1,threat,threat,picture1.jpg,picture1.jpg,1,neutral,neutral,picture1.jpg,picture1.jpg,1,neutral,neutral,picture7.jpg,picture7.jpg,1,neutral,neutral,picture2.jpg,picture2.jpg,1,threat,threat,picture3.jpg,picture3.jpg,1,threat,threat,picture4.jpg,picture4.jpg,1,neutral,neutral,picture8.jpg,picture8.jpg,1,neutral,neutral,picture10.jpg,picture10.jpg
sub9,3,1,35946,10,1,threat,threat,picture2.jpg,picture2.jpg,1,neutral,neutral,picture9.jpg,picture9.jpg,1,threat,threat,picture1.jpg,picture1.jpg,1,neutral,neutral,picture1.jpg,picture1.jpg,1,neutral,neutral,picture7.jpg,picture7.jpg,1,neutral,neutral,picture2.jpg,picture2.jpg,1,threat,threat,picture3.jpg,picture3.jpg,1,threat,threat,picture4.jpg,picture4.jpg,1,neutral,neutral,picture8.jpg,picture8.jpg,1,neutral,neutral,picture10.jpg,picture10.jpg
sub9,4,1,30036,10,1,threat,threat,picture2.jpg,picture2.jpg,1,neutral,neutral,picture9.jpg,picture9.jpg,1,threat,threat,picture1.jpg,picture1.jpg,1,neutral,neutral,picture1.jpg,picture1.jpg,1,neutral,neutral,picture7.jpg,picture7.jpg,1,neutral,neutral,picture2.jpg,picture2.jpg,1,threat,threat,picture3.jpg,picture3.jpg,1,threat,threat,picture4.jpg,picture4.jpg,1,neutral,neutral,picture8.jpg,picture8.jpg,1,neutral,neutral,picture10.jpg,picture10.jpg
sub10,1,1,20328,1,0,threat,threat,picture3.jpg,picture2.jpg,0,neutral,neutral,picture9.jpg,picture4.jpg,0,threat,threat,picture1.jpg,picture4.jpg,0,neutral,neutral,picture5.jpg,picture10.jpg,0,threat,neutral,picture2.jpg,picture3.jpg,0,neutral,neutral,picture4.jpg,picture5.jpg,0,neutral,threat,picture3.jpg,picture1.jpg,1,neutral,neutral,picture1.jpg,picture1.jpg,0,neutral,threat,picture10.jpg,picture3.jpg,0,threat,neutral,picture4.jpg,picture9.jpg
sub10,1,2,27061,1,0,threat,threat,picture3.jpg,picture2.jpg,0,neutral,neutral,picture9.jpg,picture4.jpg,0,threat,threat,picture1.jpg,picture4.jpg,0,neutral,neutral,picture5.jpg,picture10.jpg,0,threat,neutral,picture2.jpg,picture3.jpg,0,neutral,neutral,picture4.jpg,picture5.jpg,0,neutral,threat,picture3.jpg,picture1.jpg,1,neutral,neutral,picture1.jpg,picture1.jpg,0,threat,threat,picture4.jpg,picture3.jpg,0,neutral,neutral,picture10.jpg,picture9.jpg
sub10,1,3,29676,1,0,threat,threat,picture3.jpg,picture2.jpg,0,neutral,neutral,picture9.jpg,picture4.jpg,0,threat,threat,picture1.jpg,picture4.jpg,0,neutral,neutral,picture5.jpg,picture10.jpg,0,threat,neutral,picture2.jpg,picture3.jpg,0,neutral,neutral,picture4.jpg,picture5.jpg,0,neutral,threat,picture10.jpg,picture1.jpg,1,neutral,neutral,picture1.jpg,picture1.jpg,0,threat,threat,picture4.jpg,picture3.jpg,0,neutral,neutral,picture3.jpg,picture9.jpg
sub10,1,4,31807,1,0,threat,threat,picture3.jpg,picture2.jpg,0,neutral,neutral,picture9.jpg,picture4.jpg,0,threat,threat,picture1.jpg,picture4.jpg,0,neutral,neutral,picture5.jpg,picture10.jpg,0,threat,neutral,picture2.jpg,picture3.jpg,0,neutral,neutral,picture10.jpg,picture5.jpg,0,neutral,threat,picture4.jpg,picture1.jpg,1,neutral,neutral,picture1.jpg,picture1.jpg,0,threat,threat,picture4.jpg,picture3.jpg,0,neutral,neutral,picture3.jpg,picture9.jpg
sub10,1,5,34944,1,0,threat,threat,picture3.jpg,picture2.jpg,0,neutral,neutral,picture9.jpg,picture4.jpg,0,threat,threat,picture1.jpg,picture4.jpg,0,neutral,neutral,picture3.jpg,picture10.jpg,0,threat,neutral,picture2.jpg,picture3.jpg,0,neutral,neutral,picture10.jpg,picture5.jpg,0,neutral,threat,picture4.jpg,picture1.jpg,1,neutral,neutral,picture1.jpg,picture1.jpg,0,threat,threat,picture4.jpg,picture3.jpg,0,neutral,neutral,picture5.jpg,picture9.jpg
sub10,1,6,37749,1,0,threat,threat,picture3.jpg,picture2.jpg,0,neutral,neutral,picture9.jpg,picture4.jpg,0,threat,threat,picture1.jpg,picture4.jpg,0,neutral,neutral,picture3.jpg,picture10.jpg,0,threat,neutral,picture4.jpg,picture3.jpg,0,neutral,neutral,picture10.jpg,picture5.jpg,0,neutral,threat,picture4.jpg,picture1.jpg,1,neutral,neutral,picture1.jpg,picture1.jpg,0,threat,threat,picture2.jpg,picture3.jpg,0,neutral,neutral,picture5.jpg,picture9.jpg
sub10,1,7,40150,1,0,neutral,threat,picture9.jpg,picture2.jpg,0,threat,neutral,picture3.jpg,picture4.jpg,0,threat,threat,picture1.jpg,picture4.jpg,0,neutral,neutral,picture3.jpg,picture10.jpg,0,threat,neutral,picture4.jpg,picture3.jpg,0,neutral,neutral,picture10.jpg,picture5.jpg,0,neutral,threat,picture4.jpg,picture1.jpg,1,neutral,neutral,picture1.jpg,picture1.jpg,0,threat,threat,picture2.jpg,picture3.jpg,0,neutral,neutral,picture5.jpg,picture9.jpg
sub10,1,8,42757,1,0,threat,threat,picture1.jpg,picture2.jpg,0,threat,neutral,picture3.jpg,picture4.jpg,0,neutral,threat,picture9.jpg,picture4.jpg,0,neutral,neutral,picture3.jpg,picture10.jpg,0,threat,neutral,picture4.jpg,picture3.jpg,0,neutral,neutral,picture10.jpg,picture5.jpg,0,neutral,threat,picture4.jpg,picture1.jpg,1,neutral,neutral,picture1.jpg,picture1.jpg,0,threat,threat,picture2.jpg,picture3.jpg,0,neutral,neutral,picture5.jpg,picture9.jpg
sub10,1,9,46104,1,0,threat,threat,picture1.jpg,picture2.jpg,0,threat,neutral,picture3.jpg,picture4.jpg,0,neutral,threat,picture9.jpg,picture4.jpg,0,threat,neutral,picture2.jpg,picture10.jpg,0,threat,neutral,picture4.jpg,picture3.jpg,0,neutral,neutral,picture10.jpg,picture5.jpg,0,neutral,threat,picture4.jpg,picture1.jpg,1,neutral,neutral,picture1.jpg,picture1.jpg,0,neutral,threat,picture3.jpg,picture3.jpg,0,neutral,neutral,picture5.jpg,picture9.jpg
sub10,1,10,48508,2,0,threat,threat,picture1.jpg,picture2.jpg,0,threat,neutral,picture3.jpg,picture4.jpg,0,neutral,threat,picture9.jpg,picture4.jpg,0,threat,neutral,picture2.jpg,picture10.jpg,1,neutral,neutral,picture3.jpg,picture3.jpg,0,neutral,neutral,picture10.jpg,picture5.jpg,0,neutral,threat,picture4.jpg,picture1.jpg,1,neutral,neutral,picture1.jpg,picture1.jpg,0,threat,threat,picture4.jpg,picture3.jpg,0,neutral,neutral,picture5.jpg,picture9.jpg
sub10,1,11,51157,2,0,threat,threat,picture1.jpg,picture2.jpg,0,threat,neutral,picture3.jpg,picture4.jpg,0,neutral,threat,picture9.jpg,picture4.jpg,0,threat,neutral,picture2.jpg,picture10.jpg,1,neutral,neutral,picture3.jpg,picture3.jpg,0,neutral,neutral,picture4.jpg,picture5.jpg,0,neutral,threat,picture10.jpg,picture1.jpg,1,neutral,neutral,picture1.jpg,picture1.jpg,0,threat,threat,picture4.jpg,picture3.jpg,0,neutral,neutral,picture5.jpg,picture9.jpg
sub10,1,12,53303,2,0,neutral,threat,picture5.jpg,picture2.jpg,0,threat,neutral,picture3.jpg,picture4.jpg,0,neutral,threat,picture9.jpg,picture4.jpg,0,threat,neutral,picture2.jpg,picture10.jpg,1,neutral,neutral,picture3.jpg,picture3.jpg,0,neutral,neutral,picture4.jpg,picture5.jpg,0,neutral,threat,picture10.jpg,picture1.jpg,1,neutral,neutral,picture1.jpg,picture1.jpg,0,threat,threat,picture4.jpg,picture3.jpg,0,threat,neutral,picture1.jpg,picture9.jpg
sub10,1,13,56078,2,0,neutral,threat,picture5.jpg,picture2.jpg,0,threat,neutral,picture3.jpg,picture4.jpg,0,neutral,threat,picture9.jpg,picture4.jpg,0,threat,neutral,picture2.jpg,picture10.jpg,1,neutral,neutral,picture3.jpg,picture3.jpg,0,threat,neutral,picture1.jpg,picture5.jpg,0,neutral,threat,picture10.jpg,picture1.jpg,1,neutral,neutral,picture1.jpg,picture1.jpg,0,threat,threat,picture4.jpg,picture3.jpg,0,neutral,neutral,picture4.jpg,picture9.jpg
sub10,1,14,58973,2,0,neutral,threat,picture5.jpg,picture2.jpg,0,threat,neutral,picture3.jpg,picture4.jpg,0,neutral,threat,picture9.jpg,picture4.jpg,0,threat,neutral,picture2.jpg,picture10.jpg,1,neutral,neutral,picture3.jpg,picture3.jpg,0,threat,neutral,picture1.jpg,picture5.jpg,0,threat,threat,picture4.jpg,picture1.jpg,1,neutral,neutral,picture1.jpg,picture1.jpg,0,neutral,threat,picture10.jpg,picture3.jpg,0,neutral,neutral,picture4.jpg,picture9.jpg
sub10,1,15,61605,3,0,neutral,threat,picture5.jpg,picture2.jpg,1,neutral,neutral,picture4.jpg,picture4.jpg,0,neutral,threat,picture9.jpg,picture4.jpg,0,threat,neutral,picture2.jpg,picture10.jpg,1,neutral,neutral,picture3.jpg,picture3.jpg,0,threat,neutral,picture1.jpg,picture5.jpg,0,threat,threat,picture4.jpg,picture1.jpg,1,neutral,neutral,picture1.jpg,picture1.jpg,0,neutral,threat,picture10.jpg,picture3.jpg,0,threat,neutral,picture3.jpg,picture9.jpg
sub10,1,16,64930,4,1,threat,threat,picture2.jpg,picture2.jpg,1,neutral,neutral,picture4.jpg,picture4.jpg,0,neutral,threat,picture9.jpg,picture4.jpg,0,neutral,neutral,picture5.jpg,picture10.jpg,1,neutral,neutral,picture3.jpg,picture3.jpg,0,threat,neutral,picture1.jpg,picture5.jpg,0,threat,threat,picture4.jpg,picture1.jpg,1,neutral,neutral,picture1.jpg,picture1.jpg,0,neutral,threat,picture10.jpg,picture3.jpg,0,threat,neutral,picture3.jpg,picture9.jpg
sub10,1,17,68738,4,1,threat,threat,picture2.jpg,picture2.jpg,1,neutral,neutral,picture4.jpg,picture4.jpg,0,neutral,threat,picture9.jpg,picture4.jpg,0,threat,neutral,picture4.jpg,picture10.jpg,1,neutral,neutral,picture3.jpg,picture3.jpg,0,threat,neutral,picture1.jpg,picture5.jpg,0,neutral,threat,picture5.jpg,picture1.jpg,1,neutral,neutral,picture1.jpg,picture1.jpg,0,neutral,threat,picture10.jpg,picture3.jpg,0,threat,neutral,picture3.jpg,picture9.jpg
sub10,1,18,72490,4,1,threat,threat,picture2.jpg,picture2.jpg,1,neutral,neutral,picture4.jpg,picture4.jpg,0,neutral,threat,picture5.jpg,picture4.jpg,0,threat,neutral,picture4.jpg,picture10.jpg,1,neutral,neutral,picture3.jpg,picture3.jpg,0,threat,neutral,picture1.jpg,picture5.jpg,0,neutral,threat,picture9.jpg,picture1.jpg,1,neutral,neutral,picture1.jpg,picture1.jpg,0,neutral,threat,picture10.jpg,picture3.jpg,0,threat,neutral,picture3.jpg,picture9.jpg
sub10,1,19,75846,5,1,threat,threat,picture2.jpg,picture2.jpg,1,neutral,neutral,picture4.jpg,picture4.jpg,0,neutral,threat,picture5.jpg,picture4.jpg,0,threat,neutral,picture4.jpg,picture10.jpg,1,neutral,neutral,picture3.jpg,picture3.jpg,0,neutral,neutral,picture9.jpg,picture5.jpg,1,threat,threat,picture1.jpg,picture1.jpg,1,neutral,neutral,picture1.jpg,picture1.jpg,0,neutral,threat,picture10.jpg,picture3.jpg,0,threat,neutral,picture3.jpg,picture9.jpg
sub10,1,20,80880,7,1,threat,threat,picture2.jpg,picture2.jpg,1,neutral,neutral,picture4.jpg,picture4.jpg,1,threat,threat,picture4.jpg,picture4.jpg,0,neutral,neutral,picture9.jpg,picture10.jpg,1,neutral,neutral,picture3.jpg,picture3.jpg,1,neutral,neutral,picture5.jpg,picture5.jpg,1,threat,threat,picture1.jpg,picture1.jpg,1,neutral,neutral,picture1.jpg,picture1.jpg,0,neutral,threat,picture10.jpg,picture3.jpg,0,threat,neutral,picture3.jpg,picture9.jpg
sub10,1,21,84295,8,1,threat,threat,picture2.jpg,picture2.jpg,1,neutral,neutral,picture4.jpg,picture4.jpg,1,threat,threat,picture4.jpg,picture4.jpg,1,neutral,neutral,picture10.jpg,picture10.jpg,1,neutral,neutral,picture3.jpg,picture3.jpg,1,neutral,neutral,picture5.jpg,picture5.jpg,1,threat,threat,picture1.jpg,picture1.jpg,1,neutral,neutral,picture1.jpg,picture1.jpg,0,neutral,threat,picture9.jpg,picture3.jpg,0,threat,neutral,picture3.jpg,picture9.jpg
sub10,1,22,86519,10,1,threat,threat,picture2.jpg,picture2.jpg,1,neutral,neutral,picture4.jpg,picture4.jpg,1,threat,threat,picture4.jpg,picture4.jpg,1,neutral,neutral,picture10.jpg,picture10.jpg,1,neutral,neutral,picture3.jpg,picture3.jpg,1,neutral,neutral,picture5.jpg,picture5.jpg,1,threat,threat,picture1.jpg,picture1.jpg,1,neutral,neutral,picture1.jpg,picture1.jpg,1,threat,threat,picture3.jpg,picture3.jpg,1,neutral,neutral,picture9.jpg,picture9.jpg
sub10,2,1,30309,10,1,threat,threat,picture2.jpg,picture2.jpg,1,neutral,neutral,picture4.jpg,picture4.jpg,1,threat,threat,picture4.jpg,picture4.jpg,1,neutral,neutral,picture10.jpg,picture10.jpg,1,neutral,neutral,picture3.jpg,picture3.jpg,1,neutral,neutral,picture5.jpg,picture5.jpg,1,threat,threat,picture1.jpg,picture1.jpg,1,neutral,neutral,picture1.jpg,picture1.jpg,1,threat,threat,picture3.jpg,picture3.jpg,1,neutral,neutral,picture9.jpg,picture9.jpg
sub10,3,1,32618,10,1,threat,threat,picture2.jpg,picture2.jpg,1,neutral,neutral,picture4.jpg,picture4.jpg,1,threat,threat,picture4.jpg,picture4.jpg,1,neutral,neutral,picture10.jpg,picture10.jpg,1,neutral,neutral,picture3.jpg,picture3.jpg,1,neutral,neutral,picture5.jpg,picture5.jpg,1,threat,threat,picture1.jpg,picture1.jpg,1,neutral,neutral,picture1.jpg,picture1.jpg,1,threat,threat,picture3.jpg,picture3.jpg,1,neutral,neutral,picture9.jpg,picture9.jpg
sub10,4,1,36115,10,1,threat,threat,picture2.jpg,picture2.jpg,1,neutral,neutral,picture4.jpg,picture4.jpg,1,threat,threat,picture4.jpg,picture4.jpg,1,neutral,neutral,picture10.jpg,picture10.jpg,1,neutral,neutral,picture3.jpg,picture3.jpg,1,neutral,neutral,picture5.jpg,picture5.jpg,1,threat,threat,picture1.jpg,picture1.jpg,1,neutral,neutral,picture1.jpg,picture1.jpg,1,threat,threat,picture3.jpg,picture3.jpg,1,neutral,neutral,picture9.jpg,picture9.jpg
sub11,1,1,19036,2,0,neutral,neutral,picture7.jpg,picture3.jpg,0,neutral,threat,picture1.jpg,picture3.jpg,0,threat,neutral,picture3.jpg,picture4.jpg,1,threat,threat,picture4.jpg,picture4.jpg,0,neutral,neutral,picture3.jpg,picture5.jpg,0,neutral,neutral,picture9.jpg,picture1.jpg,1,threat,threat,picture2.jpg,picture2.jpg,0,threat,neutral,picture1.jpg,picture7.jpg,0,neutral,threat,picture4.jpg,picture1.jpg,0,neutral,neutral,picture5.jpg,picture9.jpg
sub11,1,2,28384,3,0,neutral,neutral,picture5.jpg,picture3.jpg,0,neutral,threat,picture1.jpg,picture3.jpg,1,neutral,neutral,picture4.jpg,picture4.jpg,1,threat,threat,picture4.jpg,picture4.jpg,0,neutral,neutral,picture7.jpg,picture5.jpg,0,neutral,neutral,picture9.jpg,picture1.jpg,1,threat,threat,picture2.jpg,picture2.jpg,0,threat,neutral,picture1.jpg,picture7.jpg,0,threat,threat,picture3.jpg,picture1.jpg,0,neutral,neutral,picture3.jpg,picture9.jpg
sub11,1,3,32516,4,0,neutral,neutral,picture5.jpg,picture3.jpg,0,neutral,threat,picture1.jpg,picture3.jpg,1,neutral,neutral,picture4.jpg,picture4.jpg,1,threat,threat,picture4.jpg,picture4.jpg,0,neutral,neutral,picture7.jpg,picture5.jpg,0,neutral,neutral,picture3.jpg,picture1.jpg,1,threat,threat,picture2.jpg,picture2.jpg,0,threat,neutral,picture1.jpg,picture7.jpg,0,threat,threat,picture3.jpg,picture1.jpg,1,neutral,neutral,picture9.jpg,picture9.jpg
sub11,1,4,39432,4,0,threat,neutral,picture1.jpg,picture3.jpg,0,neutral,threat,picture1.jpg,picture3.jpg,1,neutral,neutral,picture4.jpg,picture4.jpg,1,threat,threat,picture4.jpg,picture4.jpg,0,neutral,neutral,picture3.jpg,picture5.jpg,0,neutral,neutral,picture7.jpg,picture1.jpg,1,threat,threat,picture2.jpg,picture2.jpg,0,neutral,neutral,picture5.jpg,picture7.jpg,0,threat,threat,picture3.jpg,picture1.jpg,1,neutral,neutral,picture9.jpg,picture9.jpg
sub11,1,5,45004,4,0,neutral,neutral,picture5.jpg,picture3.jpg,0,neutral,threat,picture3.jpg,picture3.jpg,1,neutral,neutral,picture4.jpg,picture4.jpg,1,threat,threat,picture4.jpg,picture4.jpg,0,neutral,neutral,picture1.jpg,picture5.jpg,0,neutral,neutral,picture7.jpg,picture1.jpg,1,threat,threat,picture2.jpg,picture2.jpg,0,threat,neutral,picture1.jpg,picture7.jpg,0,threat,threat,picture3.jpg,picture1.jpg,1,neutral,neutral,picture9.jpg,picture9.jpg
sub11,1,6,49935,5,0,neutral,neutral,picture5.jpg,picture3.jpg,0,neutral,threat,picture3.jpg,picture3.jpg,1,neutral,neutral,picture4.jpg,picture4.jpg,1,threat,threat,picture4.jpg,picture4.jpg,0,neutral,neutral,picture7.jpg,picture5.jpg,1,neutral,neutral,picture1.jpg,picture1.jpg,1,threat,threat,picture2.jpg,picture2.jpg,0,threat,neutral,picture1.jpg,picture7.jpg,0,threat,threat,picture3.jpg,picture1.jpg,1,neutral,neutral,picture9.jpg,picture9.jpg
sub11,1,7,56355,5,0,threat,neutral,picture3.jpg,picture3.jpg,0,threat,threat,picture1.jpg,picture3.jpg,1,neutral,neutral,picture4.jpg,picture4.jpg,1,threat,threat,picture4.jpg,picture4.jpg,0,neutral,neutral,picture7.jpg,picture5.jpg,1,neutral,neutral,picture1.jpg,picture1.jpg,1,threat,threat,picture2.jpg,picture2.jpg,0,neutral,neutral,picture3.jpg,picture7.jpg,0,neutral,threat,picture5.jpg,picture1.jpg,1,neutral,neutral,picture9.jpg,picture9.jpg
sub11,1,8,62195,6,0,neutral,neutral,picture5.jpg,picture3.jpg,0,threat,threat,picture1.jpg,picture3.jpg,1,neutral,neutral,picture4.jpg,picture4.jpg,1,threat,threat,picture4.jpg,picture4.jpg,0,neutral,neutral,picture3.jpg,picture5.jpg,1,neutral,neutral,picture1.jpg,picture1.jpg,1,threat,threat,picture2.jpg,picture2.jpg,1,neutral,neutral,picture7.jpg,picture7.jpg,0,threat,threat,picture3.jpg,picture1.jpg,1,neutral,neutral,picture9.jpg,picture9.jpg
sub11,1,9,67509,8,0,neutral,neutral,picture5.jpg,picture3.jpg,1,threat,threat,picture3.jpg,picture3.jpg,1,neutral,neutral,picture4.jpg,picture4.jpg,1,threat,threat,picture4.jpg,picture4.jpg,0,neutral,neutral,picture3.jpg,picture5.jpg,1,neutral,neutral,picture1.jpg,picture1.jpg,1,threat,threat,picture2.jpg,picture2.jpg,1,neutral,neutral,picture7.jpg,picture7.jpg,1,threat,threat,picture1.jpg,picture1.jpg,1,neutral,neutral,picture9.jpg,picture9.jpg
sub11,1,10,73647,10,1,neutral,neutral,picture3.jpg,picture3.jpg,1,threat,threat,picture3.jpg,picture3.jpg,1,neutral,neutral,picture4.jpg,picture4.jpg,1,threat,threat,picture4.jpg,picture4.jpg,1,neutral,neutral,picture5.jpg,picture5.jpg,1,neutral,neutral,picture1.jpg,picture1.jpg,1,threat,threat,picture2.jpg,picture2.jpg,1,neutral,neutral,picture7.jpg,picture7.jpg,1,threat,threat,picture1.jpg,picture1.jpg,1,neutral,neutral,picture9.jpg,picture9.jpg
sub11,2,1,41404,10,1,neutral,neutral,picture3.jpg,picture3.jpg,1,threat,threat,picture3.jpg,picture3.jpg,1,neutral,neutral,picture4.jpg,picture4.jpg,1,threat,threat,picture4.jpg,picture4.jpg,1,neutral,neutral,picture5.jpg,picture5.jpg,1,neutral,neutral,picture1.jpg,picture1.jpg,1,threat,threat,picture2.jpg,picture2.jpg,1,neutral,neutral,picture7.jpg,picture7.jpg,1,threat,threat,picture1.jpg,picture1.jpg,1,neutral,neutral,picture9.jpg,picture9.jpg
sub11,3,1,46280,10,1,neutral,neutral,picture3.jpg,picture3.jpg,1,threat,threat,picture3.jpg,picture3.jpg,1,neutral,neutral,picture4.jpg,picture4.jpg,1,threat,threat,picture4.jpg,picture4.jpg,1,neutral,neutral,picture5.jpg,picture5.jpg,1,neutral,neutral,picture1.jpg,picture1.jpg,1,threat,threat,picture2.jpg,picture2.jpg,1,neutral,neutral,picture7.jpg,picture7.jpg,1,threat,threat,picture1.jpg,picture1.jpg,1,neutral,neutral,picture9.jpg,picture9.jpg
sub11,4,1,31108,10,1,neutral,neutral,picture3.jpg,picture3.jpg,1,threat,threat,picture3.jpg,picture3.jpg,1,neutral,neutral,picture4.jpg,picture4.jpg,1,threat,threat,picture4.jpg,picture4.jpg,1,neutral,neutral,picture5.jpg,picture5.jpg,1,neutral,neutral,picture1.jpg,picture1.jpg,1,threat,threat,picture2.jpg,picture2.jpg,1,neutral,neutral,picture7.jpg,picture7.jpg,1,threat,threat,picture1.jpg,picture1.jpg,1,neutral,neutral,picture9.jpg,picture9.jpg
sub12,1,1,20747,1,0,neutral,threat,picture9.jpg,picture2.jpg,0,threat,neutral,picture3.jpg,picture5.jpg,0,threat,threat,picture2.jpg,picture1.jpg,0,neutral,neutral,picture5.jpg,picture1.jpg,1,neutral,neutral,picture6.jpg,picture6.jpg,0,threat,neutral,picture4.jpg,picture9.jpg,0,neutral,neutral,picture1.jpg,picture3.jpg,0,threat,threat,picture1.jpg,picture4.jpg,0,neutral,neutral,picture3.jpg,picture7.jpg,0,neutral,threat,picture7.jpg,picture3.jpg
sub12,1,2,27435,1,0,neutral,threat,picture1.jpg,picture2.jpg,0,threat,neutral,picture3.jpg,picture5.jpg,0,threat,threat,picture2.jpg,picture1.jpg,0,neutral,neutral,picture5.jpg,picture1.jpg,1,neutral,neutral,picture6.jpg,picture6.jpg,0,threat,neutral,picture4.jpg,picture9.jpg,0,neutral,neutral,picture9.jpg,picture3.jpg,0,threat,threat,picture1.jpg,picture4.jpg,0,neutral,neutral,picture3.jpg,picture7.jpg,0,neutral,threat,picture7.jpg,picture3.jpg
sub12,1,3,30295,1,0,threat,threat,picture3.jpg,picture2.jpg,0,neutral,neutral,picture1.jpg,picture5.jpg,0,threat,threat,picture2.jpg,picture1.jpg,0,neutral,neutral,picture5.jpg,picture1.jpg,1,neutral,neutral,picture6.jpg,picture6.jpg,0,threat,neutral,picture4.jpg,picture9.jpg,0,neutral,neutral,picture9.jpg,picture3.jpg,0,threat,threat,picture1.jpg,picture4.jpg,0,neutral,neutral,picture3.jpg,picture7.jpg,0,neutral,threat,picture7.jpg,picture3.jpg
sub12,1,4,32913,1,0,threat,threat,picture3.jpg,picture2.jpg,0,threat,neutral,picture2.jpg,picture5.jpg,0,neutral,threat,picture1.jpg,picture1.jpg,0,neutral,neutral,picture5.jpg,picture1.jpg,1,neutral,neutral,picture6.jpg,picture6.jpg,0,threat,neutral,picture4.jpg,picture9.jpg,0,neutral,neutral,picture9.jpg,picture3.jpg,0,threat,threat,picture1.jpg,picture4.jpg,0,neutral,neutral,picture3.jpg,picture7.jpg,0,neutral,threat,picture7.jpg,picture3.jpg
sub12,1,5,37661,2,0,threat,threat,picture3.jpg,picture2.jpg,0,threat,neutral,picture2.jpg,picture5.jpg,0,neutral,threat,picture5.jpg,picture1.jpg,1,neutral,neutral,picture1.jpg,picture1.jpg,1,neutral,neutral,picture6.jpg,picture6.jpg,0,threat,neutral,picture4.jpg,picture9.jpg,0,neutral,neutral,picture9.jpg,picture3.jpg,0,threat,threat,picture1.jpg,picture4.jpg,0,neutral,neutral,picture3.jpg,picture7.jpg,0,neutral,threat,picture7.jpg,picture3.jpg
sub12,1,6,41754,3,0,threat,threat,picture3.jpg,picture2.jpg,0,threat,neutral,picture2.jpg,picture5.jpg,0,neutral,threat,picture5.jpg,picture1.jpg,1,neutral,neutral,picture1.jpg,picture1.jpg,1,neutral,neutral,picture6.jpg,picture6.jpg,1,neutral,neutral,picture9.jpg,picture9.jpg,0,threat,neutral,picture4.jpg,picture3.jpg,0,threat,threat,picture1.jpg,picture4.jpg,0,neutral,neutral,picture3.jpg,picture7.jpg,0,neutral,threat,picture7.jpg,picture3.jpg
sub12,1,7,45295,3,0,threat,threat,picture3.jpg,picture2.jpg,0,threat,neutral,picture2.jpg,picture5.jpg,0,neutral,threat,picture5.jpg,picture1.jpg,1,neutral,neutral,picture1.jpg,picture1.jpg,1,neutral,neutral,picture6.jpg,picture6.jpg,1,neutral,neutral,picture9.jpg,picture9.jpg,0,neutral,neutral,picture7.jpg,picture3.jpg,0,threat,threat,picture1.jpg,picture4.jpg,0,neutral,neutral,picture3.jpg,picture7.jpg,0,threat,threat,picture4.jpg,picture3.jpg
sub12,1,8,48350,3,0,threat,threat,picture3.jpg,picture2.jpg,0,threat,neutral,picture2.jpg,picture5.jpg,0,neutral,threat,picture5.jpg,picture1.jpg,1,neutral,neutral,picture1.jpg,picture1.jpg,1,neutral,neutral,picture6.jpg,picture6.jpg,1,neutral,neutral,picture9.jpg,picture9.jpg,0,neutral,neutral,picture7.jpg,picture3.jpg,0,threat,threat,picture1.jpg,picture4.jpg,0,threat,neutral,picture4.jpg,picture7.jpg,0,neutral,threat,picture3.jpg,picture3.jpg
sub12,1,9,51455,4,0,threat,threat,picture3.jpg,picture2.jpg,0,threat,neutral,picture2.jpg,picture5.jpg,0,neutral,threat,picture5.jpg,picture1.jpg,1,neutral,neutral,picture1.jpg,picture1.jpg,1,neutral,neutral,picture6.jpg,picture6.jpg,1,neutral,neutral,picture9.jpg,picture9.jpg,0,neutral,neutral,picture7.jpg,picture3.jpg,1,threat,threat,picture4.jpg,picture4.jpg,0,threat,neutral,picture1.jpg,picture7.jpg,0,neutral,threat,picture3.jpg,picture3.jpg
sub12,1,10,55816,4,0,threat,threat,picture1.jpg,picture2.jpg,0,threat,neutral,picture2.jpg,picture5.jpg,0,neutral,threat,picture5.jpg,picture1.jpg,1,neutral,neutral,picture1.jpg,picture1.jpg,1,neutral,neutral,picture6.jpg,picture6.jpg,1,neutral,neutral,picture9.jpg,picture9.jpg,0,neutral,neutral,picture7.jpg,picture3.jpg,1,threat,threat,picture4.jpg,picture4.jpg,0,threat,neutral,picture3.jpg,picture7.jpg,0,neutral,threat,picture3.jpg,picture3.jpg
sub12,1,11,58716,4,0,neutral,threat,picture3.jpg,picture2.jpg,0,threat,neutral,picture2.jpg,picture5.jpg,0,neutral,threat,picture5.jpg,picture1.jpg,1,neutral,neutral,picture1.jpg,picture1.jpg,1,neutral,neutral,picture6.jpg,picture6.jpg,1,neutral,neutral,picture9.jpg,picture9.jpg,0,neutral,neutral,picture7.jpg,picture3.jpg,1,threat,threat,picture4.jpg,picture4.jpg,0,threat,neutral,picture3.jpg,picture7.jpg,0,threat,threat,picture1.jpg,picture3.jpg
sub12,1,12,63294,4,0,neutral,threat,picture3.jpg,picture2.jpg,0,threat,neutral,picture2.jpg,picture5.jpg,0,neutral,threat,picture5.jpg,picture1.jpg,1,neutral,neutral,picture1.jpg,picture1.jpg,1,neutral,neutral,picture6.jpg,picture6.jpg,1,neutral,neutral,picture9.jpg,picture9.jpg,0,threat,neutral,picture1.jpg,picture3.jpg,1,threat,threat,picture4.jpg,picture4.jpg,0,threat,neutral,picture3.jpg,picture7.jpg,0,neutral,threat,picture7.jpg,picture3.jpg
sub12,1,13,66134,4,0,neutral,threat,picture3.jpg,picture2.jpg,0,threat,neutral,picture1.jpg,picture5.jpg,0,neutral,threat,picture5.jpg,picture1.jpg,1,neutral,neutral,picture1.jpg,picture1.jpg,1,neutral,neutral,picture6.jpg,picture6.jpg,1,neutral,neutral,picture9.jpg,picture9.jpg,0,threat,neutral,picture2.jpg,picture3.jpg,1,threat,threat,picture4.jpg,picture4.jpg,0,threat,neutral,picture3.jpg,picture7.jpg,0,neutral,threat,picture7.jpg,picture3.jpg
sub12,1,14,68887,6,0,neutral,threat,picture3.jpg,picture2.jpg,1,neutral,neutral,picture5.jpg,picture5.jpg,1,threat,threat,picture1.jpg,picture1.jpg,1,neutral,neutral,picture1.jpg,picture1.jpg,1,neutral,neutral,picture6.jpg,picture6.jpg,1,neutral,neutral,picture9.jpg,picture9.jpg,0,threat,neutral,picture2.jpg,picture3.jpg,1,threat,threat,picture4.jpg,picture4.jpg,0,threat,neutral,picture3.jpg,picture7.jpg,0,neutral,threat,picture7.jpg,picture3.jpg
sub12,1,15,73559,6,0,neutral,threat,picture7.jpg,picture2.jpg,1,neutral,neutral,picture5.jpg,picture5.jpg,1,threat,threat,picture1.jpg,picture1.jpg,1,neutral,neutral,picture1.jpg,picture1.jpg,1,neutral,neutral,picture6.jpg,picture6.jpg,1,neutral,neutral,picture9.jpg,picture9.jpg,0,threat,neutral,picture2.jpg,picture3.jpg,1,threat,threat,picture4.jpg,picture4.jpg,0,threat,neutral,picture3.jpg,picture7.jpg,0,neutral,threat,picture3.jpg,picture3.jpg
sub12,1,16,75753,7,0,neutral,threat,picture7.jpg,picture2.jpg,1,neutral,neutral,picture5.jpg,picture5.jpg,1,threat,threat,picture1.jpg,picture1.jpg,1,neutral,neutral,picture1.jpg,picture1.jpg,1,neutral,neutral,picture6.jpg,picture6.jpg,1,neutral,neutral,picture9.jpg,picture9.jpg,1,neutral,neutral,picture3.jpg,picture3.jpg,1,threat,threat,picture4.jpg,picture4.jpg,0,threat,neutral,picture3.jpg,picture7.jpg,0,threat,threat,picture2.jpg,picture3.jpg
sub12,1,17,78914,8,0,neutral,threat,picture7.jpg,picture2.jpg,1,neutral,neutral,picture5.jpg,picture5.jpg,1,threat,threat,picture1.jpg,picture1.jpg,1,neutral,neutral,picture1.jpg,picture1.jpg,1,neutral,neutral,picture6.jpg,picture6.jpg,1,neutral,neutral,picture9.jpg,picture9.jpg,1,neutral,neutral,picture3.jpg,picture3.jpg,1,threat,threat,picture4.jpg,picture4.jpg,0,threat,neutral,picture2.jpg,picture7.jpg,1,threat,threat,picture3.jpg,picture3.jpg
sub12,1,18,82237,10,1,threat,threat,picture2.jpg,picture2.jpg,1,neutral,neutral,picture5.jpg,picture5.jpg,1,threat,threat,picture1.jpg,picture1.jpg,1,neutral,neutral,picture1.jpg,picture1.jpg,1,neutral,neutral,picture6.jpg,picture6.jpg,1,neutral,neutral,picture9.jpg,picture9.jpg,1,neutral,neutral,picture3.jpg,picture3.jpg,1,threat,threat,picture4.jpg,picture4.jpg,1,neutral,neutral,picture7.jpg,picture7.jpg,1,threat,threat,picture3.jpg,picture3.jpg
sub12,2,1,28349,10,1,threat,threat,picture2.jpg,picture2.jpg,1,neutral,neutral,picture5.jpg,picture5.jpg,1,threat,threat,picture1.jpg,picture1.jpg,1,neutral,neutral,picture1.jpg,picture1.jpg,1,neutral,neutral,picture6.jpg,picture6.jpg,1,neutral,neutral,picture9.jpg,picture9.jpg,1,neutral,neutral,picture3.jpg,picture3.jpg,1,threat,threat,picture4.jpg,picture4.jpg,1,neutral,neutral,picture7.jpg,picture7.jpg,1,threat,threat,picture3.jpg,picture3.jpg
sub12,3,1,35383,10,1,threat,threat,picture2.jpg,picture2.jpg,1,neutral,neutral,picture5.jpg,picture5.jpg,1,threat,threat,picture1.jpg,picture1.jpg,1,neutral,neutral,picture1.jpg,picture1.jpg,1,neutral,neutral,picture6.jpg,picture6.jpg,1,neutral,neutral,picture9.jpg,picture9.jpg,1,neutral,neutral,picture3.jpg,picture3.jpg,1,threat,threat,picture4.jpg,picture4.jpg,1,neutral,neutral,picture7.jpg,picture7.jpg,1,threat,threat,picture3.jpg,picture3.jpg
sub12,4,1,27459,10,1,threat,threat,picture2.jpg,picture2.jpg,1,neutral,neutral,picture5.jpg,picture5.jpg,1,threat,threat,picture1.jpg,picture1.jpg,1,neutral,neutral,picture1.jpg,picture1.jpg,1,neutral,neutral,picture6.jpg,picture6.jpg,1,neutral,neutral,picture9.jpg,picture9.jpg,1,neutral,neutral,picture3.jpg,picture3.jpg,1,threat,threat,picture4.jpg,picture4.jpg,1,neutral,neutral,picture7.jpg,picture7.jpg,1,threat,threat,picture3.jpg,picture3.jpg
sub13,1,1,21731,2,0,threat,neutral,picture4.jpg,picture3.jpg,1,neutral,neutral,picture1.jpg,picture1.jpg,0,neutral,threat,picture8.jpg,picture3.jpg,0,neutral,threat,picture9.jpg,picture4.jpg,0,threat,neutral,picture2.jpg,picture9.jpg,0,neutral,neutral,picture3.jpg,picture5.jpg,0,neutral,neutral,picture2.jpg,picture8.jpg,0,neutral,neutral,picture5.jpg,picture2.jpg,0,threat,threat,picture3.jpg,picture2.jpg,1,threat,threat,picture1.jpg,picture1.jpg
sub13,1,2,25176,2,0,threat,neutral,picture2.jpg,picture3.jpg,1,neutral,neutral,picture1.jpg,picture1.jpg,0,neutral,threat,picture8.jpg,picture3.jpg,0,neutral,threat,picture9.jpg,picture4.jpg,0,threat,neutral,picture4.jpg,picture9.jpg,0,neutral,neutral,picture3.jpg,picture5.jpg,0,neutral,neutral,picture2.jpg,picture8.jpg,0,neutral,neutral,picture5.jpg,picture2.jpg,0,threat,threat,picture3.jpg,picture2.jpg,1,threat,threat,picture1.jpg,picture1.jpg
sub13,1,3,29305,3,0,threat,neutral,picture2.jpg,picture3.jpg,1,neutral,neutral,picture1.jpg,picture1.jpg,0,neutral,threat,picture8.jpg,picture3.jpg,0,neutral,threat,picture9.jpg,picture4.jpg,0,threat,neutral,picture4.jpg,picture9.jpg,0,neutral,neutral,picture3.jpg,picture5.jpg,0,neutral,neutral,picture5.jpg,picture8.jpg,1,neutral,neutral,picture2.jpg,picture2.jpg,0,threat,threat,picture3.jpg,picture2.jpg,1,threat,threat,picture1.jpg,picture1.jpg
sub13,1,4,54455,3,0,threat,neutral,picture2.jpg,picture3.jpg,1,neutral,neutral,picture1.jpg,picture1.jpg,0,neutral,threat,picture3.jpg,picture3.jpg,0,neutral,threat,picture9.jpg,picture4.jpg,0,threat,neutral,picture4.jpg,picture9.jpg,0,neutral,neutral,picture8.jpg,picture5.jpg,0,neutral,neutral,picture5.jpg,picture8.jpg,1,neutral,neutral,picture2.jpg,picture2.jpg,0,threat,threat,picture3.jpg,picture2.jpg,1,threat,threat,picture1.jpg,picture1.jpg
sub13,1,5,59294,3,0,threat,neutral,picture2.jpg,picture3.jpg,1,neutral,neutral,picture1.jpg,picture1.jpg,0,neutral,threat,picture3.jpg,picture3.jpg,0,neutral,threat,picture9.jpg,picture4.jpg,0,neutral,neutral,picture5.jpg,picture9.jpg,0,neutral,neutral,picture8.jpg,picture5.jpg,0,threat,neutral,picture4.jpg,picture8.jpg,1,neutral,neutral,picture2.jpg,picture2.jpg,0,threat,threat,picture3.jpg,picture2.jpg,1,threat,threat,picture1.jpg,picture1.jpg
sub13,1,6,61978,3,0,neutral,neutral,picture9.jpg,picture3.jpg,1,neutral,neutral,picture1.jpg,picture1.jpg,0,neutral,threat,picture3.jpg,picture3.jpg,0,threat,threat,picture2.jpg,picture4.jpg,0,neutral,neutral,picture5.jpg,picture9.jpg,0,neutral,neutral,picture8.jpg,picture5.jpg,0,threat,neutral,picture4.jpg,picture8.jpg,1,neutral,neutral,picture2.jpg,picture2.jpg,0,threat,threat,picture3.jpg,picture2.jpg,1,threat,threat,picture1.jpg,picture1.jpg
sub13,1,7,64273,4,0,neutral,neutral,picture9.jpg,picture3.jpg,1,neutral,neutral,picture1.jpg,picture1.jpg,0,neutral,threat,picture3.jpg,picture3.jpg,0,threat,threat,picture2.jpg,picture4.jpg,0,neutral,neutral,picture8.jpg,picture9.jpg,1,neutral,neutral,picture5.jpg,picture5.jpg,0,threat,neutral,picture4.jpg,picture8.jpg,1,neutral,neutral,picture2.jpg,picture2.jpg,0,threat,threat,picture3.jpg,picture2.jpg,1,threat,threat,picture1.jpg,picture1.jpg
sub13,1,8,66399,4,0,threat,neutral,picture4.jpg,picture3.jpg,1,neutral,neutral,picture1.jpg,picture1.jpg,0,neutral,threat,picture3.jpg,picture3.jpg,0,threat,threat,picture2.jpg,picture4.jpg,0,neutral,neutral,picture8.jpg,picture9.jpg,1,neutral,neutral,picture5.jpg,picture5.jpg,0,neutral,neutral,picture9.jpg,picture8.jpg,1,neutral,neutral,picture2.jpg,picture2.jpg,0,threat,threat,picture3.jpg,picture2.jpg,1,threat,threat,picture1.jpg,picture1.jpg
sub13,1,9,68541,5,0,threat,neutral,picture2.jpg,picture3.jpg,1,neutral,neutral,picture1.jpg,picture1.jpg,0,neutral,threat,picture3.jpg,picture3.jpg,1,threat,threat,picture4.jpg,picture4.jpg,0,neutral,neutral,picture8.jpg,picture9.jpg,1,neutral,neutral,picture5.jpg,picture5.jpg,0,neutral,neutral,picture9.jpg,picture8.jpg,1,neutral,neutral,picture2.jpg,picture2.jpg,0,threat,threat,picture3.jpg,picture2.jpg,1,threat,threat,picture1.jpg,picture1.jpg
sub13,1,10,70634,7,0,threat,neutral,picture2.jpg,picture3.jpg,1,neutral,neutral,picture1.jpg,picture1.jpg,0,neutral,threat,picture3.jpg,picture3.jpg,1,threat,threat,picture4.jpg,picture4.jpg,1,neutral,neutral,picture9.jpg,picture9.jpg,1,neutral,neutral,picture5.jpg,picture5.jpg,1,neutral,neutral,picture8.jpg,picture8.jpg,1,neutral,neutral,picture2.jpg,picture2.jpg,0,threat,threat,picture3.jpg,picture2.jpg,1,threat,threat,picture1.jpg,picture1.jpg
sub13,1,11,72783,8,0,threat,neutral,picture3.jpg,picture3.jpg,1,neutral,neutral,picture1.jpg,picture1.jpg,0,neutral,threat,picture3.jpg,picture3.jpg,1,threat,threat,picture4.jpg,picture4.jpg,1,neutral,neutral,picture9.jpg,picture9.jpg,1,neutral,neutral,picture5.jpg,picture5.jpg,1,neutral,neutral,picture8.jpg,picture8.jpg,1,neutral,neutral,picture2.jpg,picture2.jpg,1,threat,threat,picture2.jpg,picture2.jpg,1,threat,threat,picture1.jpg,picture1.jpg
sub13,1,12,74949,10,1,neutral,neutral,picture3.jpg,picture3.jpg,1,neutral,neutral,picture1.jpg,picture1.jpg,1,threat,threat,picture3.jpg,picture3.jpg,1,threat,threat,picture4.jpg,picture4.jpg,1,neutral,neutral,picture9.jpg,picture9.jpg,1,neutral,neutral,picture5.jpg,picture5.jpg,1,neutral,neutral,picture8.jpg,picture8.jpg,1,neutral,neutral,picture2.jpg,picture2.jpg,1,threat,threat,picture2.jpg,picture2.jpg,1,threat,threat,picture1.jpg,picture1.jpg
sub13,2,1,39789,10,1,neutral,neutral,picture3.jpg,picture3.jpg,1,neutral,neutral,picture1.jpg,picture1.jpg,1,threat,threat,picture3.jpg,picture3.jpg,1,threat,threat,picture4.jpg,picture4.jpg,1,neutral,neutral,picture9.jpg,picture9.jpg,1,neutral,neutral,picture5.jpg,picture5.jpg,1,neutral,neutral,picture8.jpg,picture8.jpg,1,neutral,neutral,picture2.jpg,picture2.jpg,1,threat,threat,picture2.jpg,picture2.jpg,1,threat,threat,picture1.jpg,picture1.jpg
sub13,3,1,28880,10,1,neutral,neutral,picture3.jpg,picture3.jpg,1,neutral,neutral,picture1.jpg,picture1.jpg,1,threat,threat,picture3.jpg,picture3.jpg,1,threat,threat,picture4.jpg,picture4.jpg,1,neutral,neutral,picture9.jpg,picture9.jpg,1,neutral,neutral,picture5.jpg,picture5.jpg,1,neutral,neutral,picture8.jpg,picture8.jpg,1,neutral,neutral,picture2.jpg,picture2.jpg,1,threat,threat,picture2.jpg,picture2.jpg,1,threat,threat,picture1.jpg,picture1.jpg
sub13,4,1,31750,10,1,neutral,neutral,picture3.jpg,picture3.jpg,1,neutral,neutral,picture1.jpg,picture1.jpg,1,threat,threat,picture3.jpg,picture3.jpg,1,threat,threat,picture4.jpg,picture4.jpg,1,neutral,neutral,picture9.jpg,picture9.jpg,1,neutral,neutral,picture5.jpg,picture5.jpg,1,neutral,neutral,picture8.jpg,picture8.jpg,1,neutral,neutral,picture2.jpg,picture2.jpg,1,threat,threat,picture2.jpg,picture2.jpg,1,threat,threat,picture1.jpg,picture1.jpg
