subject,trialCount,RT,acc,partResp,chosenNode,chosenImageFile,chosenCommunityNumber,chosenThreatStatus,option1CommunityNumber,option1ThreatStatus,option2CommunityNumber,option2ThreatStatus,option3CommunityNumber,option3ThreatStatus
sub1,1,3393,1,1,Node10,picture4.jpg,2,threat,2,threat,1,neutral,1,threat
sub1,2,4592,1,3,Node2,picture7.jpg,1,neutral,2,neutral,2,neutral,1,neutral
sub1,3,2220,1,3,Node8,picture5.jpg,2,neutral,1,neutral,1,threat,2,neutral
sub1,4,3639,1,3,Node10,picture4.jpg,2,threat,1,threat,1,neutral,2,threat
sub1,5,7169,1,2,Node3,picture3.jpg,1,neutral,2,neutral,1,neutral,2,neutral
sub1,6,3349,1,2,Node10,picture4.jpg,2,threat,1,neutral,2,threat,1,threat
sub1,7,7456,1,2,Node8,picture5.jpg,2,neutral,1,neutral,2,neutral,1,threat
sub1,8,11239,1,3,Node4,picture3.jpg,1,threat,2,neutral,2,neutral,1,threat
sub1,9,8439,1,2,Node3,picture3.jpg,1,neutral,2,neutral,1,neutral,2,neutral
sub1,10,4343,1,2,Node10,picture4.jpg,2,threat,1,threat,2,threat,1,neutral
sub1,11,9343,1,2,Node9,picture4.jpg,2,neutral,1,threat,2,neutral,1,neutral
sub1,12,4680,1,3,Node6,picture9.jpg,2,neutral,1,threat,1,neutral,2,neutral
sub1,13,2212,0,2,Node9,picture4.jpg,2,neutral,2,neutral,2,neutral,1,threat
sub1,14,5226,1,3,Node3,picture3.jpg,1,neutral,2,neutral,2,neutral,1,neutral
sub1,15,1983,1,2,Node6,picture9.jpg,2,neutral,1,threat,2,neutral,1,neutral
sub1,16,2815,1,3,Node1,picture2.jpg,1,threat,2,neutral,2,neutral,1,threat
sub1,17,4593,1,3,Node10,picture4.jpg,2,threat,1,neutral,1,threat,2,threat
sub1,18,2351,1,2,Node2,picture7.jpg,1,neutral,2,neutral,1,neutral,2,neutral
sub1,19,3408,1,3,Node9,picture4.jpg,2,neutral,1,threat,1,neutral,2,neutral
sub1,20,2471,1,1,Node10,picture4.jpg,2,threat,2,threat,1,threat,1,neutral
sub1,21,4521,1,3,Node9,picture4.jpg,2,neutral,1,neutral,1,threat,2,neutral
sub1,22,13968,1,1,Node6,picture9.jpg,2,neutral,2,neutral,1,threat,1,neutral
sub1,23,3119,1,2,Node8,picture5.jpg,2,neutral,1,threat,2,neutral,1,neutral
sub1,24,7576,1,2,Node4,picture3.jpg,1,threat,2,neutral,1,threat,2,neutral
sub1,25,4416,1,3,Node3,picture3.jpg,1,neutral,2,neutral,2,neutral,1,neutral
sub1,26,6126,1,1,Node4,picture3.jpg,1,threat,1,threat,2,neutral,2,neutral
sub1,27,4448,1,1,Node8,picture5.jpg,2,neutral,2,neutral,1,threat,1,neutral
sub1,28,5448,1,2,Node4,picture3.jpg,1,threat,2,neutral,1,threat,2,neutral
sub1,29,2073,1,1,Node3,picture3.jpg,1,neutral,1,neutral,2,neutral,2,neutral
sub1,30,2967,1,2,Node1,picture2.jpg,1,threat,2,neutral,1,threat,2,neutral
sub1,31,1744,1,1,Node3,picture3.jpg,1,neutral,1,neutral,2,neutral,2,neutral
sub1,32,2456,1,2,Node1,picture2.jpg,1,threat,2,neutral,1,threat,2,neutral
sub1,33,8104,1,3,Node2,picture7.jpg,1,neutral,2,neutral,2,neutral,1,neutral
sub1,34,15024,1,1,Node8,picture5.jpg,2,neutral,2,neutral,1,neutral,1,threat
sub1,35,2591,1,1,Node4,picture3.jpg,1,threat,1,threat,2,neutral,2,neutral
sub1,36,4592,0,2,Node9,picture4.jpg,2,neutral,1,threat,2,neutral,2,neutral
sub1,37,6671,1,3,Node6,picture9.jpg,2,neutral,1,neutral,1,threat,2,neutral
sub1,38,5081,1,2,Node9,picture4.jpg,2,neutral,1,neutral,2,neutral,1,threat
sub1,39,4439,1,1,Node2,picture7.jpg,1,neutral,1,neutral,2,neutral,2,neutral
sub1,40,3368,0,3,Node9,picture4.jpg,2,neutral,1,threat,2,neutral,2,neutral
sub1,41,3305,1,1,Node6,picture9.jpg,2,neutral,2,neutral,1,neutral,1,threat
sub1,42,3799,1,3,Node8,picture5.jpg,2,neutral,1,threat,1,neutral,2,neutral
sub1,43,3561,1,2,Node6,picture9.jpg,2,neutral,1,neutral,2,neutral,1,threat
sub1,44,4304,1,1,Node9,picture4.jpg,2,neutral,2,neutral,1,threat,1,neutral
sub1,45,2004,1,1,Node2,picture7.jpg,1,neutral,1,neutral,2,neutral,2,neutral
sub1,46,3087,1,3,Node4,picture3.jpg,1,threat,2,neutral,2,neutral,1,threat
sub1,47,2345,1,1,Node9,picture4.jpg,2,neutral,2,neutral,1,neutral,1,threat
sub1,48,1710,1,2,Node2,picture7.jpg,1,neutral,2,neutral,1,neutral,2,neutral
sub2,1,3399,1,2,Node2,picture4.jpg,1,neutral,2,neutral,1,neutral,2,threat
sub2,2,6674,1,1,Node1,picture10.jpg,1,neutral,1,neutral,2,threat,2,neutral
sub2,3,4076,1,3,Node8,picture1.jpg,2,threat,1,threat,1,threat,2,threat
sub2,4,7224,0,3,Node4,picture3.jpg,1,threat,1,threat,2,neutral,1,threat
sub2,5,5289,1,1,Node8,picture1.jpg,2,threat,2,threat,1,threat,1,threat
sub2,6,7825,1,1,Node10,picture4.jpg,2,threat,2,threat,1,threat,1,neutral
sub2,7,8948,1,1,Node2,picture4.jpg,1,neutral,1,neutral,2,neutral,2,threat
sub2,8,4987,1,1,Node1,picture10.jpg,1,neutral,1,neutral,2,neutral,2,threat
sub2,9,4632,1,3,Node3,picture2.jpg,1,threat,2,neutral,2,threat,1,threat
sub2,10,3137,1,1,Node6,picture3.jpg,2,neutral,2,neutral,1,neutral,1,neutral
sub2,11,11033,1,1,Node8,picture1.jpg,2,threat,2,threat,1,threat,1,threat
sub2,12,9288,1,1,Node10,picture4.jpg,2,threat,2,threat,1,neutral,1,threat
sub2,13,10951,0,3,Node8,picture1.jpg,2,threat,2,neutral,1,threat,2,threat
sub2,14,10859,1,3,Node3,picture2.jpg,1,threat,2,threat,2,neutral,1,threat
sub2,15,8021,1,3,Node2,picture4.jpg,1,neutral,2,neutral,2,threat,1,neutral
sub2,16,13334,1,2,Node4,picture3.jpg,1,threat,2,threat,1,threat,2,neutral
sub2,17,8462,1,3,Node10,picture4.jpg,2,threat,1,threat,1,neutral,2,threat
sub2,18,7161,1,1,Node9,picture1.jpg,2,neutral,2,neutral,1,threat,1,threat
sub2,19,6308,1,3,Node4,picture3.jpg,1,threat,2,threat,2,neutral,1,threat
sub2,20,4229,1,3,Node1,picture10.jpg,1,neutral,2,neutral,2,threat,1,neutral
sub2,21,15681,1,2,Node3,picture2.jpg,1,threat,2,neutral,1,threat,2,threat
sub2,22,3353,1,3,Node2,picture4.jpg,1,neutral,2,threat,2,neutral,1,neutral
sub2,23,3461,1,1,Node4,picture3.jpg,1,threat,1,threat,2,neutral,2,threat
sub2,24,4114,1,2,Node10,picture4.jpg,2,threat,1,neutral,2,threat,1,threat
sub2,25,2968,1,3,Node6,picture3.jpg,2,neutral,1,neutral,1,neutral,2,neutral
sub2,26,6354,1,1,Node2,picture4.jpg,1,neutral,1,neutral,2,threat,2,neutral
sub2,27,5623,0,1,Node3,picture2.jpg,1,threat,1,threat,1,threat,2,threat
sub2,28,3679,1,3,Node9,picture1.jpg,2,neutral,1,threat,1,threat,2,neutral
sub2,29,4528,1,3,Node6,picture3.jpg,2,neutral,1,neutral,1,neutral,2,neutral
sub2,30,4834,1,2,Node2,picture4.jpg,1,neutral,2,threat,1,neutral,2,neutral
sub2,31,6993,1,1,Node9,picture1.jpg,2,neutral,2,neutral,1,threat,1,threat
sub2,32,7248,1,3,Node1,picture10.jpg,1,neutral,2,threat,2,neutral,1,neutral
sub2,33,11721,1,2,Node10,picture4.jpg,2,threat,1,threat,2,threat,1,neutral
sub2,34,4913,1,2,Node9,picture1.jpg,2,neutral,1,threat,2,neutral,1,threat
sub2,35,4482,1,2,Node6,picture3.jpg,2,neutral,1,neutral,2,neutral,1,neutral
sub2,36,3593,1,2,Node8,picture1.jpg,2,threat,1,threat,2,threat,1,threat
sub2,37,2227,1,3,Node9,picture1.jpg,2,neutral,1,threat,1,threat,2,neutral
sub2,38,4011,1,1,Node4,picture3.jpg,1,threat,1,threat,2,threat,2,neutral
sub2,39,9973,1,2,Node1,picture10.jpg,1,neutral,2,neutral,1,neutral,2,threat
sub2,40,6943,1,1,Node3,picture2.jpg,1,threat,1,threat,2,neutral,2,threat
sub2,41,13253,1,1,Node6,picture3.jpg,2,neutral,2,neutral,1,neutral,1,neutral
sub2,42,6242,0,3,Node4,picture3.jpg,1,threat,1,threat,2,threat,1,threat
sub2,43,5209,1,3,Node10,picture4.jpg,2,threat,1,neutral,1,threat,2,threat
sub2,44,7813,1,1,Node3,picture2.jpg,1,threat,1,threat,2,threat,2,neutral
sub2,45,5060,1,2,Node6,picture3.jpg,2,neutral,1,neutral,2,neutral,1,neutral
sub2,46,8892,0,1,Node8,picture1.jpg,2,threat,2,threat,1,threat,2,neutral
sub2,47,4582,1,3,Node4,picture3.jpg,1,threat,2,neutral,2,threat,1,threat
sub2,48,10495,0,1,Node10,picture4.jpg,2,threat,2,threat,1,neutral,2,neutral
sub3,1,3967,1,2,Node2,picture4.jpg,1,neutral,2,threat,1,neutral,2,neutral
sub3,2,2136,0,3,Node8,picture7.jpg,2,neutral,2,neutral,1,threat,2,neutral
sub3,3,1487,0,2,Node8,picture7.jpg,2,neutral,1,neutral,2,neutral,2,neutral
sub3,4,1643,0,1,Node1,picture3.jpg,1,threat,1,threat,1,neutral,2,threat
sub3,5,1238,0,2,Node1,picture3.jpg,1,threat,2,neutral,1,threat,1,threat
sub3,6,1286,0,3,Node2,picture4.jpg,1,neutral,1,threat,2,neutral,1,neutral
sub3,7,1864,1,1,Node1,picture3.jpg,1,threat,1,threat,2,neutral,2,neutral
sub3,8,822,1,2,Node8,picture7.jpg,2,neutral,1,neutral,2,neutral,1,threat
sub3,9,1287,0,3,Node2,picture4.jpg,1,neutral,2,neutral,1,threat,1,neutral
sub3,10,1050,0,2,Node2,picture4.jpg,1,neutral,2,threat,1,neutral,1,threat
sub3,11,1123,0,1,Node3,picture4.jpg,1,threat,1,threat,1,threat,2,neutral
sub3,12,1081,0,3,Node3,picture4.jpg,1,threat,1,neutral,2,neutral,1,threat
sub3,13,2058,1,2,Node10,picture1.jpg,2,neutral,1,threat,2,neutral,1,threat
sub3,14,1430,1,1,Node8,picture7.jpg,2,neutral,2,neutral,1,neutral,1,threat
sub3,15,1384,0,2,Node10,picture1.jpg,2,neutral,1,threat,2,neutral,2,threat
sub3,16,1550,1,1,Node9,picture1.jpg,2,threat,2,threat,1,threat,1,neutral
sub3,17,1620,1,1,Node4,picture5.jpg,1,neutral,1,neutral,2,neutral,2,neutral
sub3,18,1626,1,3,Node6,picture6.jpg,2,neutral,1,threat,1,neutral,2,neutral
sub3,19,1607,0,3,Node10,picture1.jpg,2,neutral,1,threat,2,neutral,2,neutral
sub3,20,1848,1,3,Node3,picture4.jpg,1,threat,2,neutral,2,threat,1,threat
sub3,21,1709,0,1,Node8,picture7.jpg,2,neutral,2,neutral,1,neutral,2,neutral
sub3,22,1105,0,2,Node10,picture1.jpg,2,neutral,2,threat,2,neutral,1,threat
sub3,23,1883,0,1,Node1,picture3.jpg,1,threat,1,threat,2,threat,1,neutral
sub3,24,1381,1,3,Node8,picture7.jpg,2,neutral,1,neutral,1,threat,2,neutral
sub3,25,1436,0,3,Node10,picture1.jpg,2,neutral,1,threat,2,threat,2,neutral
sub3,26,1814,1,3,Node1,picture3.jpg,1,threat,2,neutral,2,neutral,1,threat
sub3,27,1812,1,2,Node3,picture4.jpg,1,threat,2,threat,1,threat,2,neutral
sub3,28,1618,1,1,Node2,picture4.jpg,1,neutral,1,neutral,2,neutral,2,threat
sub3,29,1146,0,2,Node8,picture7.jpg,2,neutral,2,neutral,2,neutral,1,neutral
sub3,30,1066,0,2,Node3,picture4.jpg,1,threat,2,neutral,1,threat,1,neutral
sub3,31,1346,0,3,Node3,picture4.jpg,1,threat,1,threat,2,neutral,1,threat
sub3,32,1388,1,2,Node8,picture7.jpg,2,neutral,1,threat,2,neutral,1,neutral
sub3,33,2050,0,2,Node3,picture4.jpg,1,threat,1,threat,1,threat,2,neutral
sub3,34,14907,0,2,Node2,picture4.jpg,1,neutral,1,threat,1,neutral,2,neutral
sub3,35,2627,0,1,Node10,picture1.jpg,2,neutral,2,neutral,2,threat,1,neutral
sub3,36,2560,0,1,Node8,picture7.jpg,2,neutral,2,neutral,1,threat,2,neutral
sub3,37,2157,1,3,Node6,picture6.jpg,2,neutral,1,neutral,1,threat,2,neutral
sub3,38,2112,0,3,Node9,picture1.jpg,2,threat,2,neutral,1,neutral,2,threat
sub3,39,1945,1,3,Node1,picture3.jpg,1,threat,2,neutral,2,neutral,1,threat
sub3,40,2070,0,3,Node9,picture1.jpg,2,threat,2,neutral,1,threat,2,threat
sub3,41,2338,0,2,Node10,picture1.jpg,2,neutral,2,threat,2,neutral,1,neutral
sub3,42,1784,1,2,Node4,picture5.jpg,1,neutral,2,neutral,1,neutral,2,neutral
sub3,43,1824,0,3,Node1,picture3.jpg,1,threat,1,neutral,2,threat,1,threat
sub3,44,1705,0,3,Node3,picture4.jpg,1,threat,2,neutral,1,neutral,1,threat
sub3,45,2456,1,1,Node10,picture1.jpg,2,neutral,2,neutral,1,threat,1,threat
sub3,46,2540,0,2,Node1,picture3.jpg,1,threat,1,neutral,1,threat,2,threat
sub3,47,1847,0,2,Node10,picture1.jpg,2,neutral,2,neutral,2,neutral,1,neutral
sub3,48,2421,0,3,Node10,picture1.jpg,2,neutral,1,neutral,2,threat,2,neutral
sub4,1,4151,1,2,Node8,picture6.jpg,2,neutral,1,neutral,2,neutral,1,neutral
sub4,2,4673,1,2,Node9,picture9.jpg,2,neutral,1,neutral,2,neutral,1,neutral
sub4,3,7100,0,3,Node1,picture3.jpg,1,threat,2,threat,1,neutral,1,threat
sub4,4,13440,1,2,Node4,picture1.jpg,1,neutral,2,neutral,1,neutral,2,neutral
sub4,5,4634,1,3,Node3,picture5.jpg,1,neutral,2,threat,2,neutral,1,neutral
sub4,6,11818,1,1,Node2,picture2.jpg,1,threat,1,threat,2,threat,2,neutral
sub4,7,5802,1,1,Node8,picture6.jpg,2,neutral,2,neutral,1,neutral,1,neutral
sub4,8,5354,1,3,Node2,picture2.jpg,1,threat,2,neutral,2,threat,1,threat
sub4,9,2856,0,1,Node6,picture7.jpg,2,neutral,2,neutral,1,neutral,2,neutral
sub4,10,11242,1,3,Node3,picture5.jpg,1,neutral,2,neutral,2,threat,1,neutral
sub4,11,8765,1,1,Node4,picture1.jpg,1,neutral,1,neutral,2,neutral,2,neutral
sub4,12,7372,1,2,Node3,picture5.jpg,1,neutral,2,neutral,1,neutral,2,threat
sub4,13,5701,1,1,Node1,picture3.jpg,1,threat,1,threat,2,neutral,2,neutral
sub4,14,6816,1,1,Node6,picture7.jpg,2,neutral,2,neutral,1,neutral,1,neutral
sub4,15,7702,1,1,Node3,picture5.jpg,1,neutral,1,neutral,2,neutral,2,threat
sub4,16,3554,1,3,Node2,picture2.jpg,1,threat,2,threat,2,neutral,1,threat
sub4,17,5781,1,2,Node1,picture3.jpg,1,threat,2,neutral,1,threat,2,neutral
sub4,18,19803,1,1,Node2,picture2.jpg,1,threat,1,threat,2,neutral,2,threat
sub4,19,3370,1,3,Node9,picture9.jpg,2,neutral,1,neutral,1,neutral,2,neutral
sub4,20,5661,1,2,Node10,picture1.jpg,2,threat,1,threat,2,threat,1,neutral
sub4,21,4968,1,3,Node4,picture1.jpg,1,neutral,2,neutral,2,neutral,1,neutral
sub4,22,6734,1,1,Node3,picture5.jpg,1,neutral,1,neutral,2,threat,2,neutral
sub4,23,7899,1,3,Node4,picture1.jpg,1,neutral,2,neutral,2,neutral,1,neutral
sub4,24,3292,1,3,Node1,picture3.jpg,1,threat,2,neutral,2,neutral,1,threat
sub4,25,5792,1,2,Node3,picture5.jpg,1,neutral,2,threat,1,neutral,2,neutral
sub4,26,4559,1,2,Node1,picture3.jpg,1,threat,2,neutral,1,threat,2,neutral
sub4,27,5254,1,1,Node9,picture9.jpg,2,neutral,2,neutral,1,neutral,1,neutral
sub4,28,6310,1,2,Node10,picture1.jpg,2,threat,1,neutral,2,threat,1,threat
sub4,29,7788,1,3,Node6,picture7.jpg,2,neutral,1,neutral,1,neutral,2,neutral
sub4,30,6723,1,3,Node10,picture1.jpg,2,threat,1,neutral,1,threat,2,threat
sub4,31,4444,1,2,Node9,picture9.jpg,2,neutral,1,neutral,2,neutral,1,neutral
sub4,32,2938,1,3,Node10,picture1.jpg,2,threat,1,threat,1,neutral,2,threat
sub4,33,7210,1,2,Node8,picture6.jpg,2,neutral,1,neutral,2,neutral,1,neutral
sub4,34,2990,0,2,Node6,picture7.jpg,2,neutral,1,neutral,2,neutral,2,neutral
sub4,35,4783,1,1,Node1,picture3.jpg,1,threat,1,threat,2,neutral,2,neutral
sub4,36,6532,0,1,Node10,picture1.jpg,2,threat,2,threat,1,threat,2,neutral
sub4,37,7318,1,1,Node8,picture6.jpg,2,neutral,2,neutral,1,neutral,1,neutral
sub4,38,4292,1,1,Node6,picture7.jpg,2,neutral,2,neutral,1,neutral,1,neutral
sub4,39,3018,1,2,Node2,picture2.jpg,1,threat,2,neutral,1,threat,2,threat
sub4,40,3127,1,1,Node10,picture1.jpg,2,threat,2,threat,1,threat,1,neutral
sub4,41,4177,1,3,Node8,picture6.jpg,2,neutral,1,neutral,1,neutral,2,neutral
sub4,42,11034,1,3,Node9,picture9.jpg,2,neutral,1,neutral,1,neutral,2,neutral
sub4,43,3215,1,2,Node6,picture7.jpg,2,neutral,1,neutral,2,neutral,1,neutral
sub4,44,10144,1,1,Node9,picture9.jpg,2,neutral,2,neutral,1,neutral,1,neutral
sub4,45,4067,1,3,Node8,picture6.jpg,2,neutral,1,neutral,1,neutral,2,neutral
sub4,46,3635,1,3,Node6,picture7.jpg,2,neutral,1,neutral,1,neutral,2,neutral
sub4,47,3092,1,3,Node1,picture3.jpg,1,threat,2,neutral,2,neutral,1,threat
sub4,48,7230,1,2,Node6,picture7.jpg,2,neutral,1,neutral,2,neutral,1,neutral
sub5,1,4624,1,3,Node2,picture10.jpg,1,neutral,2,threat,2,neutral,1,neutral
sub5,2,2209,1,1,Node8,picture1.jpg,2,neutral,2,neutral,1,threat,1,threat
sub5,3,2451,1,1,Node10,picture4.jpg,2,threat,2,threat,1,neutral,1,neutral
sub5,4,2612,1,3,Node6,picture8.jpg,2,neutral,1,threat,1,neutral,2,neutral
sub5,5,2155,1,3,Node9,picture1.jpg,2,threat,1,neutral,1,threat,2,threat
sub5,6,2523,1,1,Node6,picture8.jpg,2,neutral,2,neutral,1,neutral,1,threat
sub5,7,1901,1,2,Node9,picture1.jpg,2,threat,1,neutral,2,threat,1,threat
sub5,8,2775,1,1,Node2,picture10.jpg,1,neutral,1,neutral,2,threat,2,neutral
sub5,9,2230,1,1,Node4,picture3.jpg,1,threat,1,threat,2,neutral,2,threat
sub5,10,1898,1,3,Node1,picture2.jpg,1,threat,2,neutral,2,threat,1,threat
sub5,11,3126,1,2,Node2,picture10.jpg,1,neutral,2,neutral,1,neutral,2,threat
sub5,12,2362,1,1,Node4,picture3.jpg,1,threat,1,threat,2,threat,2,neutral
sub5,13,3463,1,2,Node1,picture2.jpg,1,threat,2,neutral,1,threat,2,threat
sub5,14,5209,1,1,Node9,picture1.jpg,2,threat,2,threat,1,neutral,1,threat
sub5,15,2841,1,2,Node8,picture1.jpg,2,neutral,1,threat,2,neutral,1,threat
sub5,16,2162,1,1,Node1,picture2.jpg,1,threat,1,threat,2,neutral,2,threat
sub5,17,2928,1,2,Node9,picture1.jpg,2,threat,1,threat,2,threat,1,neutral
sub5,18,2921,1,2,Node6,picture8.jpg,2,neutral,1,neutral,2,neutral,1,threat
sub5,19,2094,1,3,Node10,picture4.jpg,2,threat,1,neutral,1,neutral,2,threat
sub5,20,3324,1,2,Node4,picture3.jpg,1,threat,2,neutral,1,threat,2,threat
sub5,21,3114,1,3,Node10,picture4.jpg,2,threat,1,neutral,1,neutral,2,threat
sub5,22,2239,1,1,Node6,picture8.jpg,2,neutral,2,neutral,1,threat,1,neutral
sub5,23,2662,1,1,Node8,picture1.jpg,2,neutral,2,neutral,1,threat,1,threat
sub5,24,3360,1,1,Node1,picture2.jpg,1,threat,1,threat,2,threat,2,neutral
sub5,25,1979,1,3,Node2,picture10.jpg,1,neutral,2,neutral,2,threat,1,neutral
sub5,26,4090,1,3,Node8,picture1.jpg,2,neutral,1,threat,1,threat,2,neutral
sub5,27,5351,1,1,Node3,picture7.jpg,1,neutral,1,neutral,2,threat,2,neutral
sub5,28,2768,1,1,Node2,picture10.jpg,1,neutral,1,neutral,2,neutral,2,threat
sub5,29,3415,1,1,Node3,picture7.jpg,1,neutral,1,neutral,2,neutral,2,threat
sub5,30,2549,1,2,Node4,picture3.jpg,1,threat,2,threat,1,threat,2,neutral
sub5,31,4048,1,2,Node2,picture10.jpg,1,neutral,2,threat,1,neutral,2,neutral
sub5,32,4425,1,3,Node3,picture7.jpg,1,neutral,2,threat,2,neutral,1,neutral
sub5,33,5293,1,2,Node8,picture1.jpg,2,neutral,1,threat,2,neutral,1,threat
sub5,34,3214,1,2,Node3,picture7.jpg,1,neutral,2,threat,1,neutral,2,neutral
sub5,35,4535,1,3,Node8,picture1.jpg,2,neutral,1,threat,1,threat,2,neutral
sub5,36,6480,1,3,Node4,picture3.jpg,1,threat,2,neutral,2,threat,1,threat
sub5,37,3824,1,2,Node6,picture8.jpg,2,neutral,1,threat,2,neutral,1,neutral
sub5,38,4147,1,3,Node9,picture1.jpg,2,threat,1,threat,1,neutral,2,threat
sub5,39,6500,1,3,Node6,picture8.jpg,2,neutral,1,neutral,1,threat,2,neutral
sub5,40,2624,1,2,Node10,picture4.jpg,2,threat,1,neutral,2,threat,1,neutral
sub5,41,4707,1,2,Node3,picture7.jpg,1,neutral,2,neutral,1,neutral,2,threat
sub5,42,9026,1,2,Node1,picture2.jpg,1,threat,2,threat,1,threat,2,neutral
sub5,43,5442,1,2,Node10,picture4.jpg,2,threat,1,neutral,2,threat,1,neutral
sub5,44,4603,1,3,Node1,picture2.jpg,1,threat,2,threat,2,neutral,1,threat
sub5,45,2974,0,1,Node6,picture8.jpg,2,neutral,2,neutral,2,threat,1,neutral
sub5,46,3684,1,3,Node4,picture3.jpg,1,threat,2,threat,2,neutral,1,threat
sub5,47,2074,1,1,Node10,picture4.jpg,2,threat,2,threat,1,neutral,1,neutral
sub5,48,3683,1,1,Node9,picture1.jpg,2,threat,2,threat,1,threat,1,neutral
sub6,1,2567,1,3,Node10,picture4.jpg,2,neutral,1,threat,1,neutral,2,neutral
sub6,2,4574,1,2,Node1,picture2.jpg,1,threat,2,neutral,1,threat,2,threat
sub6,3,2150,1,1,Node3,picture1.jpg,1,threat,1,threat,2,neutral,2,neutral
sub6,4,3137,1,3,Node1,picture2.jpg,1,threat,2,neutral,2,threat,1,threat
sub6,5,2068,1,3,Node3,picture1.jpg,1,threat,2,neutral,2,neutral,1,threat
sub6,6,2693,1,1,Node1,picture2.jpg,1,threat,1,threat,2,threat,2,neutral
sub6,7,2108,1,1,Node10,picture4.jpg,2,neutral,2,neutral,1,neutral,1,threat
sub6,8,2987,1,3,Node6,picture1.jpg,2,neutral,1,neutral,1,threat,2,neutral
sub6,9,5665,1,1,Node8,picture9.jpg,2,neutral,2,neutral,1,neutral,1,threat
sub6,10,2910,1,3,Node4,picture7.jpg,1,neutral,2,neutral,2,neutral,1,neutral
sub6,11,2184,1,1,Node2,picture3.jpg,1,neutral,1,neutral,2,neutral,2,neutral
sub6,12,2270,1,3,Node8,picture9.jpg,2,neutral,1,threat,1,neutral,2,neutral
sub6,13,3863,1,2,Node10,picture4.jpg,2,neutral,1,neutral,2,neutral,1,threat
sub6,14,4993,1,1,Node6,picture1.jpg,2,neutral,2,neutral,1,threat,1,neutral
sub6,15,6150,1,1,Node1,picture2.jpg,1,threat,1,threat,2,neutral,2,threat
sub6,16,4617,1,2,Node6,picture1.jpg,2,neutral,1,threat,2,neutral,1,neutral
sub6,17,4644,1,3,Node8,picture9.jpg,2,neutral,1,neutral,1,threat,2,neutral
sub6,18,2510,1,2,Node4,picture7.jpg,1,neutral,2,neutral,1,neutral,2,neutral
sub6,19,2946,1,3,Node1,picture2.jpg,1,threat,2,threat,2,neutral,1,threat
sub6,20,4962,1,2,Node9,picture4.jpg,2,threat,1,threat,2,threat,1,neutral
sub6,21,3443,1,2,Node3,picture1.jpg,1,threat,2,neutral,1,threat,2,neutral
sub6,22,3181,1,2,Node2,picture3.jpg,1,neutral,2,neutral,1,neutral,2,neutral
sub6,23,2182,1,2,Node9,picture4.jpg,2,threat,1,neutral,2,threat,1,threat
sub6,24,4936,1,1,Node10,picture4.jpg,2,neutral,2,neutral,1,threat,1,neutral
sub6,25,3039,1,2,Node8,picture9.jpg,2,neutral,1,neutral,2,neutral,1,threat
sub6,26,4636,1,2,Node4,picture7.jpg,1,neutral,2,neutral,1,neutral,2,neutral
sub6,27,3999,1,3,Node3,picture1.jpg,1,threat,2,neutral,2,neutral,1,threat
sub6,28,2436,1,2,Node1,picture2.jpg,1,threat,2,threat,1,threat,2,neutral
sub6,29,6701,1,2,Node6,picture1.jpg,2,neutral,1,neutral,2,neutral,1,threat
sub6,30,4455,1,1,Node8,picture9.jpg,2,neutral,2,neutral,1,threat,1,neutral
sub6,31,2516,1,1,Node9,picture4.jpg,2,threat,2,threat,1,neutral,1,threat
sub6,32,2433,1,2,Node2,picture3.jpg,1,neutral,2,neutral,1,neutral,2,neutral
sub6,33,5082,1,1,Node9,picture4.jpg,2,threat,2,threat,1,threat,1,neutral
sub6,34,3019,1,3,Node6,picture1.jpg,2,neutral,1,threat,1,neutral,2,neutral
sub6,35,5503,1,3,Node10,picture4.jpg,2,neutral,1,neutral,1,threat,2,neutral
sub6,36,6951,1,2,Node8,picture9.jpg,2,neutral,1,threat,2,neutral,1,neutral
sub6,37,2224,1,1,Node4,picture7.jpg,1,neutral,1,neutral,2,neutral,2,neutral
sub6,38,2075,1,3,Node2,picture3.jpg,1,neutral,2,neutral,2,neutral,1,neutral
sub6,39,3972,1,3,Node9,picture4.jpg,2,threat,1,neutral,1,threat,2,threat
sub6,40,3910,1,3,Node4,picture7.jpg,1,neutral,2,neutral,2,neutral,1,neutral
sub6,41,2481,1,1,Node3,picture1.jpg,1,threat,1,threat,2,neutral,2,neutral
sub6,42,4226,1,1,Node4,picture7.jpg,1,neutral,1,neutral,2,neutral,2,neutral
sub6,43,3586,1,2,Node3,picture1.jpg,1,threat,2,neutral,1,threat,2,neutral
sub6,44,1881,1,3,Node2,picture3.jpg,1,neutral,2,neutral,2,neutral,1,neutral
sub6,45,3371,1,3,Node9,picture4.jpg,2,threat,1,threat,1,neutral,2,threat
sub6,46,1741,1,1,Node2,picture3.jpg,1,neutral,1,neutral,2,neutral,2,neutral
sub6,47,3463,1,1,Node6,picture1.jpg,2,neutral,2,neutral,1,neutral,1,threat
sub6,48,4201,1,2,Node10,picture4.jpg,2,neutral,1,threat,2,neutral,1,neutral
sub7,1,13747,1,2,Node6,picture6.jpg,2,neutral,1,neutral,2,neutral,1,neutral
sub7,2,4429,1,2,Node8,picture3.jpg,2,threat,1,neutral,2,threat,1,neutral
sub7,3,3015,1,1,Node1,picture8.jpg,1,neutral,1,neutral,2,neutral,2,neutral
sub7,4,5231,1,2,Node2,picture2.jpg,1,threat,2,neutral,1,threat,2,threat
sub7,5,2257,1,3,Node4,picture1.jpg,1,neutral,2,threat,2,neutral,1,neutral
sub7,6,2455,1,2,Node1,picture8.jpg,1,neutral,2,neutral,1,neutral,2,neutral
sub7,7,2854,1,2,Node3,picture4.jpg,1,threat,2,neutral,1,threat,2,threat
sub7,8,4323,1,1,Node2,picture2.jpg,1,threat,1,threat,2,threat,2,neutral
sub7,9,3340,1,2,Node4,picture1.jpg,1,neutral,2,neutral,1,neutral,2,threat
sub7,10,3531,1,1,Node3,picture4.jpg,1,threat,1,threat,2,threat,2,neutral
sub7,11,2624,1,3,Node1,picture8.jpg,1,neutral,2,neutral,2,neutral,1,neutral
sub7,12,13818,1,3,Node4,picture1.jpg,1,neutral,2,neutral,2,threat,1,neutral
sub7,13,2396,1,1,Node1,picture8.jpg,1,neutral,1,neutral,2,neutral,2,neutral
sub7,14,3395,1,3,Node3,picture4.jpg,1,threat,2,neutral,2,threat,1,threat
sub7,15,2577,1,3,Node8,picture3.jpg,2,threat,1,neutral,1,neutral,2,threat
sub7,16,4604,1,1,Node6,picture6.jpg,2,neutral,2,neutral,1,neutral,1,neutral
sub7,17,4699,1,2,Node3,picture4.jpg,1,threat,2,threat,1,threat,2,neutral
sub7,18,2447,1,2,Node9,picture5.jpg,2,neutral,1,neutral,2,neutral,1,threat
sub7,19,3147,1,2,Node10,picture10.jpg,2,neutral,1,neutral,2,neutral,1,neutral
sub7,20,2895,1,3,Node9,picture5.jpg,2,neutral,1,neutral,1,threat,2,neutral
sub7,21,2381,1,2,Node4,picture1.jpg,1,neutral,2,threat,1,neutral,2,neutral
sub7,22,2905,1,3,Node2,picture2.jpg,1,threat,2,neutral,2,threat,1,threat
sub7,23,5144,1,3,Node8,picture3.jpg,2,threat,1,neutral,1,neutral,2,threat
sub7,24,5626,1,1,Node10,picture10.jpg,2,neutral,2,neutral,1,neutral,1,neutral
sub7,25,3430,1,1,Node4,picture1.jpg,1,neutral,1,neutral,2,threat,2,neutral
sub7,26,3924,1,3,Node2,picture2.jpg,1,threat,2,threat,2,neutral,1,threat
sub7,27,2322,1,3,Node1,picture8.jpg,1,neutral,2,neutral,2,neutral,1,neutral
sub7,28,2050,1,1,Node4,picture1.jpg,1,neutral,1,neutral,2,neutral,2,threat
sub7,29,4039,1,3,Node3,picture4.jpg,1,threat,2,threat,2,neutral,1,threat
sub7,30,2373,1,2,Node8,picture3.jpg,2,threat,1,neutral,2,threat,1,neutral
sub7,31,3910,1,1,Node6,picture6.jpg,2,neutral,2,neutral,1,neutral,1,neutral
sub7,32,3819,1,1,Node9,picture5.jpg,2,neutral,2,neutral,1,threat,1,neutral
sub7,33,2558,1,1,Node8,picture3.jpg,2,threat,2,threat,1,neutral,1,neutral
sub7,34,2683,1,2,Node1,picture8.jpg,1,neutral,2,neutral,1,neutral,2,neutral
sub7,35,3269,1,1,Node9,picture5.jpg,2,neutral,2,neutral,1,neutral,1,threat
sub7,36,3596,1,2,Node10,picture10.jpg,2,neutral,1,neutral,2,neutral,1,neutral
sub7,37,4086,1,2,Node9,picture5.jpg,2,neutral,1,threat,2,neutral,1,neutral
sub7,38,2169,1,3,Node10,picture10.jpg,2,neutral,1,neutral,1,neutral,2,neutral
sub7,39,14574,1,1,Node3,picture4.jpg,1,threat,1,threat,2,neutral,2,threat
sub7,40,4995,1,3,Node6,picture6.jpg,2,neutral,1,neutral,1,neutral,2,neutral
sub7,41,12896,1,1,Node8,picture3.jpg,2,threat,2,threat,1,neutral,1,neutral
sub7,42,1846,1,2,Node6,picture6.jpg,2,neutral,1,neutral,2,neutral,1,neutral
sub7,43,2087,1,3,Node9,picture5.jpg,2,neutral,1,threat,1,neutral,2,neutral
sub7,44,2172,1,1,Node10,picture10.jpg,2,neutral,2,neutral,1,neutral,1,neutral
sub7,45,3538,1,2,Node2,picture2.jpg,1,threat,2,threat,1,threat,2,neutral
sub7,46,3435,1,3,Node10,picture10.jpg,2,neutral,1,neutral,1,neutral,2,neutral
sub7,47,3421,1,1,Node2,picture2.jpg,1,threat,1,threat,2,neutral,2,threat
sub7,48,1680,1,3,Node6,picture6.jpg,2,neutral,1,neutral,1,neutral,2,neutral
sub8,1,4803,1,2,Node8,picture1.jpg,2,neutral,1,threat,2,neutral,1,neutral
sub8,2,4032,1,3,Node6,picture10.jpg,2,neutral,1,neutral,1,neutral,2,neutral
sub8,3,2554,1,3,Node3,picture3.jpg,1,threat,2,neutral,2,threat,1,threat
sub8,4,3059,1,2,Node6,picture10.jpg,2,neutral,1,neutral,2,neutral,1,neutral
sub8,5,1051,0,2,Node8,picture1.jpg,2,neutral,2,neutral,2,neutral,1,threat
sub8,6,3686,1,1,Node9,picture2.jpg,2,threat,2,threat,1,neutral,1,neutral
sub8,7,1950,1,3,Node6,picture10.jpg,2,neutral,1,neutral,1,neutral,2,neutral
sub8,8,2336,1,3,Node8,picture1.jpg,2,neutral,1,threat,1,neutral,2,neutral
sub8,9,3093,1,3,Node9,picture2.jpg,2,threat,1,neutral,1,neutral,2,threat
sub8,10,2376,1,1,Node4,picture6.jpg,1,neutral,1,neutral,2,neutral,2,neutral
sub8,11,2497,1,2,Node10,picture8.jpg,2,neutral,1,threat,2,neutral,1,threat
sub8,12,905,0,1,Node8,picture1.jpg,2,neutral,2,neutral,1,neutral,2,threat
sub8,13,4647,1,3,Node4,picture6.jpg,1,neutral,2,neutral,2,neutral,1,neutral
sub8,14,1383,1,1,Node2,picture4.jpg,1,threat,1,threat,2,neutral,2,neutral
sub8,15,1408,0,2,Node4,picture6.jpg,1,neutral,2,threat,1,neutral,1,neutral
sub8,16,1424,1,3,Node2,picture4.jpg,1,threat,2,neutral,2,neutral,1,threat
sub8,17,14468,0,3,Node8,picture1.jpg,2,neutral,2,neutral,1,neutral,2,neutral
sub8,18,50431,1,2,Node3,picture3.jpg,1,threat,2,threat,1,threat,2,neutral
sub8,19,5224,0,1,Node8,picture1.jpg,2,neutral,2,neutral,2,neutral,1,neutral
sub8,20,2392,0,3,Node9,picture2.jpg,2,threat,1,neutral,2,neutral,2,threat
sub8,21,4202,0,3,Node10,picture8.jpg,2,neutral,1,threat,2,threat,2,neutral
sub8,22,1593,0,3,Node8,picture1.jpg,2,neutral,2,threat,1,neutral,2,neutral
sub8,23,1523,0,3,Node10,picture8.jpg,2,neutral,1,threat,2,neutral,2,neutral
sub8,24,3010,0,3,Node4,picture6.jpg,1,neutral,1,neutral,2,threat,1,neutral
sub8,25,1008,0,2,Node4,picture6.jpg,1,neutral,2,neutral,1,neutral,1,neutral
sub8,26,1870,0,1,Node10,picture8.jpg,2,neutral,2,neutral,1,threat,2,neutral
sub8,27,1148,0,3,Node1,picture7.jpg,1,neutral,1,neutral,2,threat,1,neutral
sub8,28,768,0,1,Node8,picture1.jpg,2,neutral,2,neutral,1,neutral,2,neutral
sub8,29,1615,1,2,Node10,picture8.jpg,2,neutral,1,threat,2,neutral,1,threat
sub8,30,1396,1,1,Node6,picture10.jpg,2,neutral,2,neutral,1,neutral,1,neutral
sub8,31,1628,0,1,Node10,picture8.jpg,2,neutral,2,neutral,1,threat,2,threat
sub8,32,2799,0,3,Node2,picture4.jpg,1,threat,1,neutral,2,neutral,1,threat
sub8,33,2579,1,1,Node10,picture8.jpg,2,neutral,2,neutral,1,threat,1,threat
sub8,34,1975,0,2,Node8,picture1.jpg,2,neutral,2,threat,2,neutral,1,neutral
sub8,35,1018,1,1,Node3,picture3.jpg,1,threat,1,threat,2,neutral,2,threat
sub8,36,1093,1,3,Node1,picture7.jpg,1,neutral,2,neutral,2,threat,1,neutral
sub8,37,1787,1,1,Node4,picture6.jpg,1,neutral,1,neutral,2,neutral,2,neutral
sub8,38,1380,0,3,Node2,picture4.jpg,1,threat,2,neutral,1,neutral,1,threat
sub8,39,1051,0,1,Node9,picture2.jpg,2,threat,2,threat,2,neutral,1,threat
sub8,40,1125,1,3,Node9,picture2.jpg,2,threat,1,neutral,1,neutral,2,threat
sub8,41,1130,1,1,Node8,picture1.jpg,2,neutral,2,neutral,1,threat,1,neutral
sub8,42,1304,0,3,Node2,picture4.jpg,1,threat,2,neutral,1,threat,1,threat
sub8,43,1229,0,1,Node1,picture7.jpg,1,neutral,1,neutral,1,threat,2,neutral
sub8,44,756,0,2,Node3,picture3.jpg,1,threat,1,threat,1,threat,2,neutral
sub8,45,936,0,3,Node8,picture1.jpg,2,neutral,1,neutral,2,threat,2,neutral
sub8,46,2453,0,3,Node10,picture8.jpg,2,neutral,2,neutral,1,threat,2,neutral
sub8,47,2084,1,2,Node6,picture10.jpg,2,neutral,1,neutral,2,neutral,1,neutral
sub8,48,1184,1,3,Node10,picture8.jpg,2,neutral,1,threat,1,threat,2,neutral
sub9,1,16985,1,3,Node2,picture9.jpg,1,neutral,2,neutral,2,threat,1,neutral
sub9,2,7129,1,2,Node1,picture2.jpg,1,threat,2,threat,1,threat,2,neutral
sub9,3,2092,1,1,Node4,picture1.jpg,1,neutral,1,neutral,2,neutral,2,neutral
sub9,4,2315,1,3,Node9,picture8.jpg,2,neutral,1,neutral,1,threat,2,neutral
sub9,5,2056,1,1,Node3,picture1.jpg,1,threat,1,threat,2,threat,2,neutral
sub9,6,1904,1,2,Node10,picture10.jpg,2,neutral,1,neutral,2,neutral,1,neutral
sub9,7,3103,1,3,Node8,picture4.jpg,2,threat,1,threat,1,neutral,2,threat
sub9,8,1976,1,3,Node6,picture2.jpg,2,neutral,1,threat,1,threat,2,neutral
sub9,9,2292,1,2,Node8,picture4.jpg,2,threat,1,neutral,2,threat,1,threat
sub9,10,1949,1,3,Node4,picture1.jpg,1,neutral,2,neutral,2,neutral,1,neutral
sub9,11,1737,1,3,Node3,picture1.jpg,1,threat,2,threat,2,neutral,1,threat
sub9,12,1630,1,3,Node10,picture10.jpg,2,neutral,1,neutral,1,neutral,2,neutral
sub9,13,2777,1,1,Node1,picture2.jpg,1,threat,1,threat,2,neutral,2,threat
sub9,14,1416,1,2,Node4,picture1.jpg,1,neutral,2,neutral,1,neutral,2,neutral
sub9,15,2054,1,1,Node9,picture8.jpg,2,neutral,2,neutral,1,neutral,1,threat
sub9,16,4345,1,1,Node2,picture9.jpg,1,neutral,1,neutral,2,neutral,2,threat
sub9,17,1495,1,3,Node3,picture1.jpg,1,threat,2,neutral,2,threat,1,threat
sub9,18,5115,1,3,Node10,picture10.jpg,2,neutral,1,neutral,1,neutral,2,neutral
sub9,19,2091,1,2,Node6,picture2.jpg,2,neutral,1,threat,2,neutral,1,threat
sub9,20,2235,1,2,Node3,picture1.jpg,1,threat,2,neutral,1,threat,2,threat
sub9,21,2410,1,1,Node1,picture2.jpg,1,threat,1,threat,2,threat,2,neutral
sub9,22,1874,1,2,Node3,picture1.jpg,1,threat,2,threat,1,threat,2,neutral
sub9,23,2058,1,2,Node9,picture8.jpg,2,neutral,1,threat,2,neutral,1,neutral
sub9,24,6175,1,3,Node8,picture4.jpg,2,threat,1,neutral,1,threat,2,threat
sub9,25,2208,1,1,Node10,picture10.jpg,2,neutral,2,neutral,1,neutral,1,neutral
sub9,26,3456,1,1,Node8,picture4.jpg,2,threat,2,threat,1,neutral,1,threat
sub9,27,2075,1,2,Node10,picture10.jpg,2,neutral,1,neutral,2,neutral,1,neutral
sub9,28,2401,1,1,Node8,picture4.jpg,2,threat,2,threat,1,threat,1,neutral
sub9,29,1904,1,2,Node6,picture2.jpg,2,neutral,1,threat,2,neutral,1,threat
sub9,30,5444,1,3,Node4,picture1.jpg,1,neutral,2,neutral,2,neutral,1,neutral
sub9,31,5879,1,3,Node9,picture8.jpg,2,neutral,1,threat,1,neutral,2,neutral
sub9,32,4248,1,1,Node6,picture2.jpg,2,neutral,2,neutral,1,threat,1,threat
sub9,33,2154,1,1,Node10,picture10.jpg,2,neutral,2,neutral,1,neutral,1,neutral
sub9,34,7230,1,3,Node6,picture2.jpg,2,neutral,1,threat,1,threat,2,neutral
sub9,35,7683,1,2,Node9,picture8.jpg,2,neutral,1,neutral,2,neutral,1,threat
sub9,36,1716,1,3,Node2,picture9.jpg,1,neutral,2,threat,2,neutral,1,neutral
sub9,37,2250,1,1,Node3,picture1.jpg,1,threat,1,threat,2,neutral,2,threat
sub9,38,2248,1,1,Node9,picture8.jpg,2,neutral,2,neutral,1,threat,1,neutral
sub9,39,10588,1,1,Node2,picture9.jpg,1,neutral,1,neutral,2,threat,2,neutral
sub9,40,1821,1,3,Node1,picture2.jpg,1,threat,2,threat,2,neutral,1,threat
sub9,41,3803,1,2,Node2,picture9.jpg,1,neutral,2,neutral,1,neutral,2,threat
sub9,42,2041,1,1,Node4,picture1.jpg,1,neutral,1,neutral,2,neutral,2,neutral
sub9,43,3835,1,3,Node1,picture2.jpg,1,threat,2,neutral,2,threat,1,threat
sub9,44,4108,1,2,Node2,picture9.jpg,1,neutral,2,threat,1,neutral,2,neutral
sub9,45,1463,1,2,Node4,picture1.jpg,1,neutral,2,neutral,1,neutral,2,neutral
sub9,46,1965,1,1,Node6,picture2.jpg,2,neutral,2,neutral,1,threat,1,threat
sub9,47,3233,1,2,Node1,picture2.jpg,1,threat,2,neutral,1,threat,2,threat
sub9,48,2206,1,2,Node8,picture4.jpg,2,threat,1,threat,2,threat,1,neutral
sub10,1,4389,0,1,Node9,picture3.jpg,2,threat,2,threat,2,neutral,1,threat
sub10,2,3086,1,3,Node9,picture3.jpg,2,threat,1,neutral,1,neutral,2,threat
sub10,3,3867,1,3,Node6,picture5.jpg,2,neutral,1,threat,1,neutral,2,neutral
sub10,4,3032,1,2,Node9,picture3.jpg,2,threat,1,neutral,2,threat,1,neutral
sub10,5,4774,1,2,Node3,picture4.jpg,1,threat,2,neutral,1,threat,2,neutral
sub10,6,2025,1,1,Node9,picture3.jpg,2,threat,2,threat,1,neutral,1,neutral
sub10,7,3356,1,1,Node10,picture9.jpg,2,neutral,2,neutral,1,threat,1,neutral
sub10,8,2382,1,1,Node1,picture2.jpg,1,threat,1,threat,2,neutral,2,threat
sub10,9,3637,0,2,Node2,picture4.jpg,1,neutral,1,neutral,1,neutral,2,neutral
sub10,10,2493,1,3,Node10,picture9.jpg,2,neutral,1,threat,1,neutral,2,neutral
sub10,11,3741,1,2,Node8,picture1.jpg,2,neutral,1,neutral,2,neutral,1,neutral
sub10,12,5536,0,2,Node4,picture10.jpg,1,neutral,2,neutral,1,neutral,1,threat
sub10,13,3045,1,2,Node8,picture1.jpg,2,neutral,1,neutral,2,neutral,1,neutral
sub10,14,5878,1,1,Node6,picture5.jpg,2,neutral,2,neutral,1,neutral,1,threat
sub10,15,1918,1,2,Node9,picture3.jpg,2,threat,1,neutral,2,threat,1,neutral
sub10,16,4571,1,1,Node3,picture4.jpg,1,threat,1,threat,2,neutral,2,neutral
sub10,17,2871,1,1,Node8,picture1.jpg,2,neutral,2,neutral,1,neutral,1,neutral
sub10,18,2369,1,3,Node6,picture5.jpg,2,neutral,1,neutral,1,threat,2,neutral
sub10,19,4879,1,1,Node9,picture3.jpg,2,threat,2,threat,1,neutral,1,neutral
sub10,20,2567,1,3,Node2,picture4.jpg,1,neutral,2,neutral,2,neutral,1,neutral
sub10,21,4678,1,2,Node1,picture2.jpg,1,threat,2,threat,1,threat,2,neutral
sub10,22,3667,1,3,Node3,picture4.jpg,1,threat,2,neutral,2,neutral,1,threat
sub10,23,3903,1,2,Node2,picture4.jpg,1,neutral,2,neutral,1,neutral,2,neutral
sub10,24,3766,1,2,Node10,picture9.jpg,2,neutral,1,neutral,2,neutral,1,threat
sub10,25,2597,1,1,Node6,picture5.jpg,2,neutral,2,neutral,1,threat,1,neutral
sub10,26,3048,1,1,Node8,picture1.jpg,2,neutral,2,neutral,1,neutral,1,neutral
sub10,27,2137,1,2,Node6,picture5.jpg,2,neutral,1,neutral,2,neutral,1,threat
sub10,28,3278,1,2,Node4,picture10.jpg,1,neutral,2,neutral,1,neutral,2,threat
sub10,29,6196,0,3,Node8,picture1.jpg,2,neutral,1,threat,2,threat,2,neutral
sub10,30,3196,1,3,Node9,picture3.jpg,2,threat,1,neutral,1,neutral,2,threat
sub10,31,2974,1,3,Node2,picture4.jpg,1,neutral,2,neutral,2,neutral,1,neutral
sub10,32,3471,1,3,Node4,picture10.jpg,1,neutral,2,threat,2,neutral,1,neutral
sub10,33,2004,1,2,Node3,picture4.jpg,1,threat,2,neutral,1,threat,2,neutral
sub10,34,3400,1,1,Node4,picture10.jpg,1,neutral,1,neutral,2,neutral,2,threat
sub10,35,4060,0,1,Node8,picture1.jpg,2,neutral,2,neutral,2,threat,1,threat
sub10,36,5031,1,1,Node2,picture4.jpg,1,neutral,1,neutral,2,neutral,2,neutral
sub10,37,3996,1,1,Node4,picture10.jpg,1,neutral,1,neutral,2,threat,2,neutral
sub10,38,3034,1,2,Node1,picture2.jpg,1,threat,2,neutral,1,threat,2,threat
sub10,39,3915,1,1,Node2,picture4.jpg,1,neutral,1,neutral,2,neutral,2,neutral
sub10,40,3554,1,1,Node3,picture4.jpg,1,threat,1,threat,2,neutral,2,neutral
sub10,41,4097,0,3,Node4,picture10.jpg,1,neutral,1,threat,2,neutral,1,neutral
sub10,42,2367,1,2,Node4,picture10.jpg,1,neutral,2,threat,1,neutral,2,neutral
sub10,43,4538,1,3,Node3,picture4.jpg,1,threat,2,neutral,2,neutral,1,threat
sub10,44,4051,0,1,Node4,picture10.jpg,1,neutral,1,neutral,1,threat,2,neutral
sub10,45,2761,1,3,Node4,picture10.jpg,1,neutral,2,neutral,2,threat,1,neutral
sub10,46,5895,1,2,Node2,picture4.jpg,1,neutral,2,neutral,1,neutral,2,neutral
sub10,47,3311,1,2,Node10,picture9.jpg,2,neutral,1,threat,2,neutral,1,neutral
sub10,48,1953,1,3,Node8,picture1.jpg,2,neutral,1,neutral,1,neutral,2,neutral
sub11,1,3651,1,1,Node8,picture7.jpg,2,neutral,2,neutral,1,neutral,1,neutral
sub11,2,4478,1,3,Node6,picture1.jpg,2,neutral,1,threat,1,threat,2,neutral
sub11,3,3230,1,1,Node8,picture7.jpg,2,neutral,2,neutral,1,neutral,1,neutral
sub11,4,2849,1,1,Node2,picture3.jpg,1,threat,1,threat,2,threat,2,neutral
sub11,5,4214,1,3,Node10,picture9.jpg,2,neutral,1,threat,1,neutral,2,neutral
sub11,6,4147,1,2,Node4,picture4.jpg,1,threat,2,threat,1,threat,2,neutral
sub11,7,2585,1,1,Node2,picture3.jpg,1,threat,1,threat,2,neutral,2,threat
sub11,8,4020,1,2,Node10,picture9.jpg,2,neutral,1,neutral,2,neutral,1,threat
sub11,9,3389,1,1,Node4,picture4.jpg,1,threat,1,threat,2,threat,2,neutral
sub11,10,4011,1,1,Node3,picture4.jpg,1,neutral,1,neutral,2,neutral,2,neutral
sub11,11,2429,1,3,Node2,picture3.jpg,1,threat,2,neutral,2,threat,1,threat
sub11,12,2956,1,1,Node10,picture9.jpg,2,neutral,2,neutral,1,neutral,1,threat
sub11,13,3886,1,3,Node6,picture1.jpg,2,neutral,1,threat,1,threat,2,neutral
sub11,14,3856,1,2,Node3,picture4.jpg,1,neutral,2,neutral,1,neutral,2,neutral
sub11,15,3964,1,2,Node2,picture3.jpg,1,threat,2,threat,1,threat,2,neutral
sub11,16,4099,1,1,Node10,picture9.jpg,2,neutral,2,neutral,1,threat,1,neutral
sub11,17,6264,1,2,Node2,picture3.jpg,1,threat,2,neutral,1,threat,2,threat
sub11,18,7474,1,3,Node1,picture3.jpg,1,neutral,2,threat,2,neutral,1,neutral
sub11,19,13063,1,3,Node4,picture4.jpg,1,threat,2,neutral,2,threat,1,threat
sub11,20,10644,1,3,Node9,picture1.jpg,2,threat,1,neutral,1,threat,2,threat
sub11,21,14260,1,2,Node6,picture1.jpg,2,neutral,1,threat,2,neutral,1,threat
sub11,22,16125,1,3,Node3,picture4.jpg,1,neutral,2,neutral,2,neutral,1,neutral
sub11,23,12884,1,1,Node6,picture1.jpg,2,neutral,2,neutral,1,threat,1,threat
sub11,24,15301,1,2,Node10,picture9.jpg,2,neutral,1,threat,2,neutral,1,neutral
sub11,25,3470,1,3,Node9,picture1.jpg,2,threat,1,threat,1,neutral,2,threat
sub11,26,10164,1,2,Node8,picture7.jpg,2,neutral,1,neutral,2,neutral,1,neutral
sub11,27,16320,1,2,Node1,picture3.jpg,1,neutral,2,threat,1,neutral,2,neutral
sub11,28,3186,1,3,Node3,picture4.jpg,1,neutral,2,neutral,2,neutral,1,neutral
sub11,29,5848,1,2,Node1,picture3.jpg,1,neutral,2,neutral,1,neutral,2,threat
sub11,30,6715,1,3,Node2,picture3.jpg,1,threat,2,threat,2,neutral,1,threat
sub11,31,6358,1,3,Node8,picture7.jpg,2,neutral,1,neutral,1,neutral,2,neutral
sub11,32,4130,1,1,Node6,picture1.jpg,2,neutral,2,neutral,1,threat,1,threat
sub11,33,2753,1,3,Node8,picture7.jpg,2,neutral,1,neutral,1,neutral,2,neutral
sub11,34,4363,1,2,Node6,picture1.jpg,2,neutral,1,threat,2,neutral,1,threat
sub11,35,3720,0,1,Node8,picture7.jpg,2,neutral,2,neutral,1,threat,2,threat
sub11,36,5127,1,2,Node8,picture7.jpg,2,neutral,1,neutral,2,neutral,1,neutral
sub11,37,4157,1,2,Node9,picture1.jpg,2,threat,1,neutral,2,threat,1,threat
sub11,38,2086,1,2,Node3,picture4.jpg,1,neutral,2,neutral,1,neutral,2,neutral
sub11,39,10547,1,1,Node1,picture3.jpg,1,neutral,1,neutral,2,threat,2,neutral
sub11,40,2797,1,1,Node9,picture1.jpg,2,threat,2,threat,1,neutral,1,threat
sub11,41,3078,1,1,Node3,picture4.jpg,1,neutral,1,neutral,2,neutral,2,neutral
sub11,42,3139,1,1,Node4,picture4.jpg,1,threat,1,threat,2,neutral,2,threat
sub11,43,10323,1,3,Node1,picture3.jpg,1,neutral,2,neutral,2,threat,1,neutral
sub11,44,7585,1,1,Node9,picture1.jpg,2,threat,2,threat,1,threat,1,neutral
sub11,45,3817,1,3,Node10,picture9.jpg,2,neutral,1,neutral,1,threat,2,neutral
sub11,46,3534,1,3,Node4,picture4.jpg,1,threat,2,threat,2,neutral,1,threat
sub11,47,2816,1,1,Node1,picture3.jpg,1,neutral,1,neutral,2,neutral,2,threat
sub11,48,2650,1,2,Node9,picture1.jpg,2,threat,1,threat,2,threat,1,neutral
sub12,1,8371,1,2,Node6,picture9.jpg,2,neutral,1,threat,2,neutral,1,neutral
sub12,2,3898,1,2,Node10,picture3.jpg,2,threat,1,threat,2,threat,1,threat
sub12,3,6465,1,2,Node8,picture4.jpg,2,threat,1,neutral,2,threat,1,threat
sub12,4,2654,1,3,Node6,picture9.jpg,2,neutral,1,threat,1,neutral,2,neutral
sub12,5,4017,1,1,Node8,picture4.jpg,2,threat,2,threat,1,neutral,1,threat
sub12,6,3072,1,2,Node9,picture7.jpg,2,neutral,1,neutral,2,neutral,1,neutral
sub12,7,12278,1,2,Node1,picture2.jpg,1,threat,2,threat,1,threat,2,neutral
sub12,8,4881,1,3,Node4,picture1.jpg,1,neutral,2,threat,2,threat,1,neutral
sub12,9,5311,1,3,Node8,picture4.jpg,2,threat,1,threat,1,neutral,2,threat
sub12,10,2675,1,3,Node6,picture9.jpg,2,neutral,1,neutral,1,threat,2,neutral
sub12,11,3599,1,3,Node4,picture1.jpg,1,neutral,2,threat,2,threat,1,neutral
sub12,12,2783,1,3,Node10,picture3.jpg,2,threat,1,threat,1,threat,2,threat
sub12,13,13074,1,3,Node2,picture5.jpg,1,neutral,2,neutral,2,threat,1,neutral
sub12,14,2441,1,3,Node3,picture1.jpg,1,threat,2,threat,2,neutral,1,threat
sub12,15,3369,1,2,Node9,picture7.jpg,2,neutral,1,neutral,2,neutral,1,neutral
sub12,16,14875,1,2,Node10,picture3.jpg,2,threat,1,threat,2,threat,1,threat
sub12,17,6429,1,1,Node3,picture1.jpg,1,threat,1,threat,2,threat,2,neutral
sub12,18,4826,1,1,Node6,picture9.jpg,2,neutral,2,neutral,1,threat,1,neutral
sub12,19,3779,1,1,Node8,picture4.jpg,2,threat,2,threat,1,threat,1,neutral
sub12,20,4874,1,3,Node9,picture7.jpg,2,neutral,1,neutral,1,neutral,2,neutral
sub12,21,9819,1,2,Node1,picture2.jpg,1,threat,2,neutral,1,threat,2,threat
sub12,22,3105,1,3,Node9,picture7.jpg,2,neutral,1,neutral,1,neutral,2,neutral
sub12,23,7517,1,2,Node4,picture1.jpg,1,neutral,2,threat,1,neutral,2,threat
sub12,24,2828,1,1,Node2,picture5.jpg,1,neutral,1,neutral,2,threat,2,neutral
sub12,25,2087,1,1,Node4,picture1.jpg,1,neutral,1,neutral,2,threat,2,threat
sub12,26,2797,1,2,Node2,picture5.jpg,1,neutral,2,threat,1,neutral,2,neutral
sub12,27,2943,1,1,Node6,picture9.jpg,2,neutral,2,neutral,1,neutral,1,threat
sub12,28,10856,1,1,Node9,picture7.jpg,2,neutral,2,neutral,1,neutral,1,neutral
sub12,29,3443,1,1,Node3,picture1.jpg,1,threat,1,threat,2,neutral,2,threat
sub12,30,5938,1,1,Node1,picture2.jpg,1,threat,1,threat,2,threat,2,neutral
sub12,31,4782,1,3,Node8,picture4.jpg,2,threat,1,neutral,1,threat,2,threat
sub12,32,4556,1,1,Node10,picture3.jpg,2,threat,2,threat,1,threat,1,threat
sub12,33,4265,1,2,Node8,picture4.jpg,2,threat,1,threat,2,threat,1,neutral
sub12,34,4949,1,3,Node1,picture2.jpg,1,threat,2,neutral,2,threat,1,threat
sub12,35,6288,1,3,Node2,picture5.jpg,1,neutral,2,threat,2,neutral,1,neutral
sub12,36,3959,1,1,Node10,picture3.jpg,2,threat,2,threat,1,threat,1,threat
sub12,37,5143,1,1,Node9,picture7.jpg,2,neutral,2,neutral,1,neutral,1,neutral
sub12,38,3993,1,2,Node3,picture1.jpg,1,threat,2,neutral,1,threat,2,threat
sub12,39,19719,1,2,Node4,picture1.jpg,1,neutral,2,threat,1,neutral,2,threat
sub12,40,2827,1,3,Node3,picture1.jpg,1,threat,2,neutral,2,threat,1,threat
sub12,41,2426,1,1,Node1,picture2.jpg,1,threat,1,threat,2,neutral,2,threat
sub12,42,2800,1,2,Node3,picture1.jpg,1,threat,2,threat,1,threat,2,neutral
sub12,43,2423,1,3,Node1,picture2.jpg,1,threat,2,threat,2,neutral,1,threat
sub12,44,3672,1,1,Node4,picture1.jpg,1,neutral,1,neutral,2,threat,2,threat
sub12,45,12713,1,2,Node2,picture5.jpg,1,neutral,2,neutral,1,neutral,2,threat
sub12,46,3876,1,2,Node6,picture9.jpg,2,neutral,1,neutral,2,neutral,1,threat
sub12,47,3279,1,3,Node10,picture3.jpg,2,threat,1,threat,1,threat,2,threat
sub12,48,6632,1,1,Node2,picture5.jpg,1,neutral,1,neutral,2,neutral,2,threat
sub13,1,4222,1,3,Node9,picture2.jpg,2,threat,1,neutral,1,neutral,2,threat
sub13,2,6437,1,3,Node4,picture4.jpg,1,threat,2,neutral,2,threat,1,threat
sub13,3,3202,1,1,Node10,picture1.jpg,2,threat,2,threat,1,neutral,1,threat
sub13,4,3416,1,1,Node8,picture2.jpg,2,neutral,2,neutral,1,neutral,1,threat
sub13,5,5113,1,3,Node3,picture3.jpg,1,threat,2,threat,2,threat,1,threat
sub13,6,2155,1,3,Node6,picture5.jpg,2,neutral,1,threat,1,neutral,2,neutral
sub13,7,3212,0,2,Node3,picture3.jpg,1,threat,1,neutral,1,threat,2,threat
sub13,8,7968,1,2,Node8,picture2.jpg,2,neutral,1,threat,2,neutral,1,neutral
sub13,9,4880,1,2,Node3,picture3.jpg,1,threat,2,threat,1,threat,2,threat
sub13,10,6566,1,3,Node4,picture4.jpg,1,threat,2,threat,2,neutral,1,threat
sub13,11,2807,1,2,Node10,picture1.jpg,2,threat,1,threat,2,threat,1,neutral
sub13,12,2975,1,3,Node6,picture5.jpg,2,neutral,1,neutral,1,threat,2,neutral
sub13,13,4565,1,1,Node1,picture3.jpg,1,neutral,1,neutral,2,threat,2,threat
sub13,14,2932,1,1,Node3,picture3.jpg,1,threat,1,threat,2,threat,2,threat
sub13,15,3529,1,3,Node1,picture3.jpg,1,neutral,2,threat,2,threat,1,neutral
sub13,16,34500,1,1,Node6,picture5.jpg,2,neutral,2,neutral,1,neutral,1,threat
sub13,17,3067,1,2,Node9,picture2.jpg,2,threat,1,neutral,2,threat,1,neutral
sub13,18,3857,0,3,Node3,picture3.jpg,1,threat,1,neutral,2,threat,1,threat
sub13,19,5409,1,1,Node6,picture5.jpg,2,neutral,2,neutral,1,threat,1,neutral
sub13,20,3467,0,3,Node8,picture2.jpg,2,neutral,1,threat,2,threat,2,neutral
sub13,21,10941,1,1,Node9,picture2.jpg,2,threat,2,threat,1,neutral,1,neutral
sub13,22,7588,1,2,Node4,picture4.jpg,1,threat,2,neutral,1,threat,2,threat
sub13,23,4397,1,1,Node2,picture1.jpg,1,neutral,1,neutral,2,threat,2,threat
sub13,24,3012,1,2,Node1,picture3.jpg,1,neutral,2,threat,1,neutral,2,threat
sub13,25,3535,0,1,Node2,picture1.jpg,1,neutral,1,neutral,2,neutral,1,threat
sub13,26,7748,1,1,Node3,picture3.jpg,1,threat,1,threat,2,threat,2,threat
sub13,27,5601,1,2,Node2,picture1.jpg,1,neutral,2,threat,1,neutral,2,threat
sub13,28,2538,1,3,Node1,picture3.jpg,1,neutral,2,threat,2,threat,1,neutral
sub13,29,5958,1,1,Node4,picture4.jpg,1,threat,1,threat,2,neutral,2,threat
sub13,30,2629,1,2,Node1,picture3.jpg,1,neutral,2,threat,1,neutral,2,threat
sub13,31,2179,1,2,Node2,picture1.jpg,1,neutral,2,threat,1,neutral,2,threat
sub13,32,3712,1,3,Node3,picture3.jpg,1,threat,2,threat,2,threat,1,threat
sub13,33,3374,1,2,Node6,picture5.jpg,2,neutral,1,threat,2,neutral,1,neutral
sub13,34,2808,1,2,Node4,picture4.jpg,1,threat,2,threat,1,threat,2,neutral
sub13,35,4777,1,3,Node9,picture2.jpg,2,threat,1,neutral,1,neutral,2,threat
sub13,36,2951,1,2,Node8,picture2.jpg,2,neutral,1,neutral,2,neutral,1,threat
sub13,37,2369,1,1,Node10,picture1.jpg,2,threat,2,threat,1,threat,1,neutral
sub13,38,3276,1,2,Node9,picture2.jpg,2,threat,1,neutral,2,threat,1,neutral
sub13,39,5776,1,3,Node8,picture2.jpg,2,neutral,1,neutral,1,threat,2,neutral
sub13,40,2384,1,3,Node2,picture1.jpg,1,neutral,2,threat,2,threat,1,neutral
sub13,41,6613,1,2,Node3,picture3.jpg,1,threat,2,threat,1,threat,2,threat
sub13,42,4137,1,3,Node8,picture2.jpg,2,neutral,1,threat,1,neutral,2,neutral
sub13,43,2482,1,1,Node2,picture1.jpg,1,neutral,1,neutral,2,threat,2,threat
sub13,44,2715,1,1,Node1,picture3.jpg,1,neutral,1,neutral,2,threat,2,threat
sub13,45,2208,1,3,Node2,picture1.jpg,1,neutral,2,threat,2,threat,1,neutral
sub13,46,3160,1,1,Node8,picture2.jpg,2,neutral,2,neutral,1,threat,1,neutral
sub13,47,5526,1,1,Node9,picture2.jpg,2,threat,2,threat,1,neutral,1,neutral
sub13,48,3991,1,3,Node10,picture1.jpg,2,threat,1,threat,1,neutral,2,threat
sub14,1,10636,1,1,Node8,picture5.jpg,2,neutral,2,neutral,1,neutral,1,threat
sub14,2,12756,1,3,Node10,picture1.jpg,2,threat,1,threat,1,neutral,2,threat
sub14,3,11053,1,2,Node6,picture1.jpg,2,neutral,1,neutral,2,neutral,1,threat
sub14,4,10365,1,1,Node10,picture1.jpg,2,threat,2,threat,1,neutral,1,threat
sub14,5,14131,1,3,Node9,picture3.jpg,2,threat,1,neutral,1,threat,2,threat
sub14,6,12693,1,2,Node10,picture1.jpg,2,threat,1,threat,2,threat,1,neutral
sub14,7,13811,1,3,Node9,picture3.jpg,2,threat,1,threat,1,neutral,2,threat
sub14,8,4143,1,3,Node8,picture5.jpg,2,neutral,1,threat,1,neutral,2,neutral
sub14,9,10576,1,2,Node1,picture4.jpg,1,neutral,2,neutral,1,neutral,2,threat
sub14,10,3295,1,3,Node2,picture6.jpg,1,neutral,2,threat,2,threat,1,neutral
sub14,11,2876,1,3,Node4,picture4.jpg,1,threat,2,neutral,2,neutral,1,threat
sub14,12,9305,1,3,Node6,picture1.jpg,2,neutral,1,threat,1,neutral,2,neutral
sub14,13,9408,0,3,Node4,picture4.jpg,1,threat,1,neutral,2,neutral,1,threat
sub14,14,8039,0,2,Node4,picture4.jpg,1,threat,1,neutral,1,threat,2,threat
sub14,15,3423,1,3,Node4,picture4.jpg,1,threat,2,neutral,2,neutral,1,threat
sub14,16,17408,1,2,Node9,picture3.jpg,2,threat,1,neutral,2,threat,1,threat
sub14,17,21633,1,1,Node3,picture2.jpg,1,threat,1,threat,2,neutral,2,threat
sub14,18,17238,1,1,Node10,picture1.jpg,2,threat,2,threat,1,threat,1,neutral
sub14,19,4197,1,3,Node6,picture1.jpg,2,neutral,1,neutral,1,threat,2,neutral
sub14,20,4094,1,2,Node8,picture5.jpg,2,neutral,1,threat,2,neutral,1,neutral
sub14,21,8093,1,1,Node6,picture1.jpg,2,neutral,2,neutral,1,neutral,1,threat
sub14,22,3689,1,1,Node2,picture6.jpg,1,neutral,1,neutral,2,threat,2,threat
sub14,23,4683,1,1,Node1,picture4.jpg,1,neutral,1,neutral,2,threat,2,neutral
sub14,24,5695,1,2,Node3,picture2.jpg,1,threat,2,neutral,1,threat,2,threat
sub14,25,5246,1,1,Node2,picture6.jpg,1,neutral,1,neutral,2,threat,2,threat
sub14,26,7017,1,1,Node9,picture3.jpg,2,threat,2,threat,1,neutral,1,threat
sub14,27,14279,1,1,Node1,picture4.jpg,1,neutral,1,neutral,2,neutral,2,threat
sub14,28,3693,1,1,Node8,picture5.jpg,2,neutral,2,neutral,1,threat,1,neutral
sub14,29,9331,1,2,Node1,picture4.jpg,1,neutral,2,threat,1,neutral,2,neutral
sub14,30,2732,0,2,Node4,picture4.jpg,1,threat,1,neutral,1,threat,2,neutral
sub14,31,6639,1,3,Node2,picture6.jpg,1,neutral,2,threat,2,threat,1,neutral
sub14,32,5826,1,1,Node4,picture4.jpg,1,threat,1,threat,2,neutral,2,neutral
sub14,33,2817,1,3,Node3,picture2.jpg,1,threat,2,threat,2,neutral,1,threat
sub14,34,3178,1,3,Node1,picture4.jpg,1,neutral,2,neutral,2,threat,1,neutral
sub14,35,5747,1,2,Node4,picture4.jpg,1,threat,2,neutral,1,threat,2,neutral
sub14,36,5356,1,2,Node3,picture2.jpg,1,threat,2,threat,1,threat,2,neutral
sub14,37,9893,1,1,Node4,picture4.jpg,1,threat,1,threat,2,neutral,2,neutral
sub14,38,7765,1,3,Node1,picture4.jpg,1,neutral,2,threat,2,neutral,1,neutral
sub14,39,9579,0,3,Node2,picture6.jpg,1,neutral,2,neutral,1,threat,1,neutral
sub14,40,7570,1,1,Node3,picture2.jpg,1,threat,1,threat,2,threat,2,neutral
sub14,41,2885,1,2,Node2,picture6.jpg,1,neutral,2,threat,1,neutral,2,threat
sub14,42,4200,1,2,Node10,picture1.jpg,2,threat,1,neutral,2,threat,1,threat
sub14,43,4623,1,2,Node9,picture3.jpg,2,threat,1,threat,2,threat,1,neutral
sub14,44,3754,1,3,Node3,picture2.jpg,1,threat,2,neutral,2,threat,1,threat
sub14,45,3857,1,2,Node4,picture4.jpg,1,threat,2,neutral,1,threat,2,neutral
sub14,46,5246,1,2,Node2,picture6.jpg,1,neutral,2,threat,1,neutral,2,threat
sub14,47,4882,1,1,Node9,picture3.jpg,2,threat,2,threat,1,threat,1,neutral
sub14,48,12699,1,2,Node6,picture1.jpg,2,neutral,1,threat,2,neutral,1,neutral
sub15,1,2947,1,1,Node4,picture1.jpg,1,neutral,1,neutral,2,threat,2,neutral
sub15,2,3845,1,2,Node8,picture3.jpg,2,neutral,1,threat,2,neutral,1,neutral
sub15,3,2930,1,1,Node2,picture10.jpg,1,neutral,1,neutral,2,neutral,2,neutral
sub15,4,3577,1,1,Node1,picture4.jpg,1,threat,1,threat,2,neutral,2,neutral
sub15,5,3401,1,3,Node4,picture1.jpg,1,neutral,2,threat,2,neutral,1,neutral
sub15,6,3066,1,1,Node8,picture3.jpg,2,neutral,2,neutral,1,threat,1,neutral
sub15,7,4354,1,2,Node6,picture4.jpg,2,neutral,1,neutral,2,neutral,1,neutral
sub15,8,3470,1,3,Node8,picture3.jpg,2,neutral,1,threat,1,neutral,2,neutral
sub15,9,3133,1,3,Node4,picture1.jpg,1,neutral,2,neutral,2,threat,1,neutral
sub15,10,3871,1,2,Node10,picture7.jpg,2,neutral,1,threat,2,neutral,1,neutral
sub15,11,3209,0,2,Node2,picture10.jpg,1,neutral,2,neutral,1,neutral,1,threat
sub15,12,5081,1,1,Node6,picture4.jpg,2,neutral,2,neutral,1,neutral,1,neutral
sub15,13,2843,1,3,Node10,picture7.jpg,2,neutral,1,neutral,1,threat,2,neutral
sub15,14,2306,1,3,Node9,picture3.jpg,2,threat,1,threat,1,threat,2,threat
sub15,15,2439,1,2,Node8,picture3.jpg,2,neutral,1,neutral,2,neutral,1,threat
sub15,16,2187,1,1,Node1,picture4.jpg,1,threat,1,threat,2,neutral,2,neutral
sub15,17,3207,1,2,Node2,picture10.jpg,1,neutral,2,neutral,1,neutral,2,neutral
sub15,18,3255,1,2,Node3,picture1.jpg,1,threat,2,neutral,1,threat,2,threat
sub15,19,3184,1,2,Node10,picture7.jpg,2,neutral,1,neutral,2,neutral,1,threat
sub15,20,3002,1,2,Node6,picture4.jpg,2,neutral,1,neutral,2,neutral,1,neutral
sub15,21,6174,1,1,Node9,picture3.jpg,2,threat,2,threat,1,threat,1,threat
sub15,22,2100,1,3,Node6,picture4.jpg,2,neutral,1,neutral,1,neutral,2,neutral
sub15,23,2645,1,1,Node10,picture7.jpg,2,neutral,2,neutral,1,threat,1,neutral
sub15,24,2885,1,1,Node6,picture4.jpg,2,neutral,2,neutral,1,neutral,1,neutral
sub15,25,2859,1,2,Node9,picture3.jpg,2,threat,1,threat,2,threat,1,threat
sub15,26,2467,1,1,Node2,picture10.jpg,1,neutral,1,neutral,2,neutral,2,neutral
sub15,27,2767,1,2,Node1,picture4.jpg,1,threat,2,neutral,1,threat,2,neutral
sub15,28,4010,1,1,Node3,picture1.jpg,1,threat,1,threat,2,neutral,2,threat
sub15,29,3117,1,2,Node2,picture10.jpg,1,neutral,2,neutral,1,neutral,2,neutral
sub15,30,2199,1,2,Node1,picture4.jpg,1,threat,2,neutral,1,threat,2,neutral
sub15,31,1890,1,3,Node2,picture10.jpg,1,neutral,2,neutral,2,neutral,1,neutral
sub15,32,2545,1,2,Node9,picture3.jpg,2,threat,1,threat,2,threat,1,threat
sub15,33,2515,1,3,Node6,picture4.jpg,2,neutral,1,neutral,1,neutral,2,neutral
sub15,34,2521,0,2,Node10,picture7.jpg,2,neutral,2,threat,2,neutral,1,threat
sub15,35,2659,1,1,Node10,picture7.jpg,2,neutral,2,neutral,1,neutral,1,threat
sub15,36,2443,1,1,Node9,picture3.jpg,2,threat,2,threat,1,threat,1,threat
sub15,37,2651,1,3,Node10,picture7.jpg,2,neutral,1,threat,1,neutral,2,neutral
sub15,38,2756,1,3,Node9,picture3.jpg,2,threat,1,threat,1,threat,2,threat
sub15,39,3174,1,3,Node1,picture4.jpg,1,threat,2,neutral,2,neutral,1,threat
sub15,40,3376,1,2,Node3,picture1.jpg,1,threat,2,threat,1,threat,2,neutral
sub15,41,2505,1,3,Node1,picture4.jpg,1,threat,2,neutral,2,neutral,1,threat
sub15,42,6232,1,1,Node3,picture1.jpg,1,threat,1,threat,2,threat,2,neutral
sub15,43,2372,1,2,Node4,picture1.jpg,1,neutral,2,neutral,1,neutral,2,threat
sub15,44,3713,1,3,Node8,picture3.jpg,2,neutral,1,neutral,1,threat,2,neutral
sub15,45,2185,1,3,Node2,picture10.jpg,1,neutral,2,neutral,2,neutral,1,neutral
sub15,46,2234,1,2,Node4,picture1.jpg,1,neutral,2,threat,1,neutral,2,neutral
sub15,47,3606,1,3,Node3,picture1.jpg,1,threat,2,neutral,2,threat,1,threat
sub15,48,2295,1,1,Node4,picture1.jpg,1,neutral,1,neutral,2,neutral,2,threat
sub16,1,7147,1,3,Node9,picture8.jpg,2,neutral,1,neutral,1,neutral,2,neutral
sub16,2,5566,1,2,Node6,picture10.jpg,2,neutral,1,neutral,2,neutral,1,threat
sub16,3,4999,1,1,Node8,picture1.jpg,2,threat,2,threat,1,threat,1,neutral
sub16,4,3708,1,3,Node6,picture10.jpg,2,neutral,1,threat,1,neutral,2,neutral
sub16,5,3094,1,3,Node4,picture4.jpg,1,neutral,2,threat,2,neutral,1,neutral
sub16,6,5262,1,2,Node3,picture2.jpg,1,threat,2,neutral,1,threat,2,threat
sub16,7,4873,1,1,Node4,picture4.jpg,1,neutral,1,neutral,2,threat,2,neutral
sub16,8,8161,1,2,Node3,picture2.jpg,1,threat,2,threat,1,threat,2,neutral
sub16,9,4290,1,1,Node9,picture8.jpg,2,neutral,2,neutral,1,neutral,1,neutral
sub16,10,5244,1,2,Node10,picture3.jpg,2,neutral,1,threat,2,neutral,1,neutral
sub16,11,3421,1,3,Node3,picture2.jpg,1,threat,2,neutral,2,threat,1,threat
sub16,12,4514,1,1,Node6,picture10.jpg,2,neutral,2,neutral,1,neutral,1,threat
sub16,13,4550,1,1,Node10,picture3.jpg,2,neutral,2,neutral,1,threat,1,neutral
sub16,14,4501,1,2,Node9,picture8.jpg,2,neutral,1,neutral,2,neutral,1,neutral
sub16,15,7529,1,1,Node10,picture3.jpg,2,neutral,2,neutral,1,neutral,1,threat
sub16,16,4585,1,1,Node3,picture2.jpg,1,threat,1,threat,2,neutral,2,threat
sub16,17,2614,1,2,Node8,picture1.jpg,2,threat,1,neutral,2,threat,1,threat
sub16,18,4966,1,2,Node9,picture8.jpg,2,neutral,1,neutral,2,neutral,1,neutral
sub16,19,2144,1,3,Node8,picture1.jpg,2,threat,1,neutral,1,threat,2,threat
sub16,20,5563,1,1,Node1,picture9.jpg,1,neutral,1,neutral,2,neutral,2,neutral
sub16,21,4664,1,2,Node2,picture3.jpg,1,threat,2,neutral,1,threat,2,threat
sub16,22,2981,1,3,Node1,picture9.jpg,1,neutral,2,neutral,2,neutral,1,neutral
sub16,23,2635,1,1,Node4,picture4.jpg,1,neutral,1,neutral,2,neutral,2,threat
sub16,24,3929,1,1,Node2,picture3.jpg,1,threat,1,threat,2,threat,2,neutral
sub16,25,2498,1,2,Node4,picture4.jpg,1,neutral,2,threat,1,neutral,2,neutral
sub16,26,8014,1,3,Node2,picture3.jpg,1,threat,2,neutral,2,threat,1,threat
sub16,27,3167,1,3,Node9,picture8.jpg,2,neutral,1,neutral,1,neutral,2,neutral
sub16,28,2973,1,3,Node4,picture4.jpg,1,neutral,2,neutral,2,threat,1,neutral
sub16,29,2380,1,3,Node1,picture9.jpg,1,neutral,2,neutral,2,neutral,1,neutral
sub16,30,2149,1,3,Node8,picture1.jpg,2,threat,1,threat,1,neutral,2,threat
sub16,31,8342,1,1,Node9,picture8.jpg,2,neutral,2,neutral,1,neutral,1,neutral
sub16,32,5441,1,3,Node10,picture3.jpg,2,neutral,1,threat,1,neutral,2,neutral
sub16,33,2303,1,3,Node2,picture3.jpg,1,threat,2,threat,2,neutral,1,threat
sub16,34,5161,1,2,Node4,picture4.jpg,1,neutral,2,neutral,1,neutral,2,threat
sub16,35,3196,1,2,Node2,picture3.jpg,1,threat,2,threat,1,threat,2,neutral
sub16,36,10033,1,2,Node1,picture9.jpg,1,neutral,2,neutral,1,neutral,2,neutral
sub16,37,4161,1,3,Node6,picture10.jpg,2,neutral,1,neutral,1,threat,2,neutral
sub16,38,3357,1,3,Node3,picture2.jpg,1,threat,2,threat,2,neutral,1,threat
sub16,39,9042,1,2,Node10,picture3.jpg,2,neutral,1,neutral,2,neutral,1,threat
sub16,40,3775,1,1,Node6,picture10.jpg,2,neutral,2,neutral,1,threat,1,neutral
sub16,41,6764,1,1,Node3,picture2.jpg,1,threat,1,threat,2,threat,2,neutral
sub16,42,12805,1,3,Node10,picture3.jpg,2,neutral,1,neutral,1,threat,2,neutral
sub16,43,8465,1,2,Node8,picture1.jpg,2,threat,1,threat,2,threat,1,neutral
sub16,44,3673,1,2,Node1,picture9.jpg,1,neutral,2,neutral,1,neutral,2,neutral
sub16,45,4199,1,2,Node6,picture10.jpg,2,neutral,1,threat,2,neutral,1,neutral
sub16,46,5031,1,1,Node8,picture1.jpg,2,threat,2,threat,1,neutral,1,threat
sub16,47,2393,1,1,Node1,picture9.jpg,1,neutral,1,neutral,2,neutral,2,neutral
sub16,48,4567,1,1,Node2,picture3.jpg,1,threat,1,threat,2,neutral,2,threat
sub17,1,2374,1,1,Node2,picture7.jpg,1,neutral,1,neutral,2,neutral,2,threat
sub17,2,3196,1,3,Node4,picture3.jpg,1,threat,2,neutral,2,threat,1,threat
sub17,3,3386,1,1,Node1,picture2.jpg,1,neutral,1,neutral,2,neutral,2,threat
sub17,4,3006,1,2,Node9,picture2.jpg,2,threat,1,neutral,2,threat,1,threat
sub17,5,1779,1,1,Node6,picture6.jpg,2,neutral,2,neutral,1,threat,1,neutral
sub17,6,4001,1,1,Node3,picture4.jpg,1,threat,1,threat,2,threat,2,neutral
sub17,7,1993,1,2,Node8,picture9.jpg,2,neutral,1,neutral,2,neutral,1,threat
sub17,8,2363,0,1,Node9,picture2.jpg,2,threat,2,threat,1,threat,2,neutral
sub17,9,5853,1,1,Node4,picture3.jpg,1,threat,1,threat,2,threat,2,neutral
sub17,10,2027,1,1,Node9,picture2.jpg,2,threat,2,threat,1,threat,1,neutral
sub17,11,3524,1,1,Node6,picture6.jpg,2,neutral,2,neutral,1,neutral,1,threat
sub17,12,2544,1,2,Node9,picture2.jpg,2,threat,1,threat,2,threat,1,neutral
sub17,13,1774,0,2,Node1,picture2.jpg,1,neutral,2,neutral,1,neutral,1,threat
sub17,14,5564,1,3,Node6,picture6.jpg,2,neutral,1,threat,1,neutral,2,neutral
sub17,15,2716,1,1,Node2,picture7.jpg,1,neutral,1,neutral,2,threat,2,neutral
sub17,16,3040,1,3,Node3,picture4.jpg,1,threat,2,threat,2,neutral,1,threat
sub17,17,3545,1,2,Node1,picture2.jpg,1,neutral,2,neutral,1,neutral,2,threat
sub17,18,3256,1,2,Node6,picture6.jpg,2,neutral,1,neutral,2,neutral,1,threat
sub17,19,3617,1,3,Node2,picture7.jpg,1,neutral,2,threat,2,neutral,1,neutral
sub17,20,2557,1,2,Node8,picture9.jpg,2,neutral,1,threat,2,neutral,1,neutral
sub17,21,9627,1,3,Node4,picture3.jpg,1,threat,2,threat,2,neutral,1,threat
sub17,22,2425,1,3,Node10,picture8.jpg,2,neutral,1,neutral,1,neutral,2,neutral
sub17,23,3231,1,2,Node4,picture3.jpg,1,threat,2,neutral,1,threat,2,threat
sub17,24,3209,1,2,Node10,picture8.jpg,2,neutral,1,neutral,2,neutral,1,neutral
sub17,25,2245,1,2,Node6,picture6.jpg,2,neutral,1,threat,2,neutral,1,neutral
sub17,26,2969,1,1,Node9,picture2.jpg,2,threat,2,threat,1,neutral,1,threat
sub17,27,2045,1,3,Node10,picture8.jpg,2,neutral,1,neutral,1,neutral,2,neutral
sub17,28,4027,1,3,Node1,picture2.jpg,1,neutral,2,threat,2,neutral,1,neutral
sub17,29,4184,1,3,Node6,picture6.jpg,2,neutral,1,neutral,1,threat,2,neutral
sub17,30,3530,1,1,Node10,picture8.jpg,2,neutral,2,neutral,1,neutral,1,neutral
sub17,31,2358,1,2,Node4,picture3.jpg,1,threat,2,threat,1,threat,2,neutral
sub17,32,3709,1,3,Node3,picture4.jpg,1,threat,2,neutral,2,threat,1,threat
sub17,33,3842,1,2,Node2,picture7.jpg,1,neutral,2,threat,1,neutral,2,neutral
sub17,34,3224,1,1,Node8,picture9.jpg,2,neutral,2,neutral,1,threat,1,neutral
sub17,35,2547,1,2,Node3,picture4.jpg,1,threat,2,neutral,1,threat,2,threat
sub17,36,2941,1,2,Node1,picture2.jpg,1,neutral,2,threat,1,neutral,2,neutral
sub17,37,2767,1,1,Node4,picture3.jpg,1,threat,1,threat,2,neutral,2,threat
sub17,38,3505,1,3,Node2,picture7.jpg,1,neutral,2,neutral,2,threat,1,neutral
sub17,39,4526,1,3,Node8,picture9.jpg,2,neutral,1,threat,1,neutral,2,neutral
sub17,40,2847,1,1,Node3,picture4.jpg,1,threat,1,threat,2,neutral,2,threat
sub17,41,5511,1,3,Node1,picture2.jpg,1,neutral,2,neutral,2,threat,1,neutral
sub17,42,3983,0,2,Node2,picture7.jpg,1,neutral,1,threat,1,neutral,2,threat
sub17,43,5774,1,2,Node10,picture8.jpg,2,neutral,1,neutral,2,neutral,1,neutral
sub17,44,2662,1,3,Node9,picture2.jpg,2,threat,1,neutral,1,threat,2,threat
sub17,45,4709,1,1,Node10,picture8.jpg,2,neutral,2,neutral,1,neutral,1,neutral
sub17,46,3974,1,3,Node8,picture9.jpg,2,neutral,1,neutral,1,threat,2,neutral
sub17,47,2537,1,2,Node2,picture7.jpg,1,neutral,2,neutral,1,neutral,2,threat
sub17,48,2829,1,1,Node1,picture2.jpg,1,neutral,1,neutral,2,threat,2,neutral
sub18,1,31817,0,2,Node1,picture7.jpg,1,neutral,2,threat,1,neutral,1,neutral
sub18,2,7342,1,3,Node6,picture8.jpg,2,neutral,1,neutral,1,threat,2,neutral
sub18,3,11105,1,3,Node2,picture1.jpg,1,threat,2,threat,2,neutral,1,threat
sub18,4,12417,1,3,Node9,picture3.jpg,2,threat,1,neutral,1,neutral,2,threat
sub18,5,1497621,0,2,Node8,picture4.jpg,2,neutral,1,threat,2,neutral,2,threat
sub18,6,449190,1,1,Node4,picture4.jpg,1,threat,1,threat,2,neutral,2,threat
sub18,7,11031,1,2,Node3,picture3.jpg,1,neutral,2,threat,1,neutral,2,neutral
sub18,8,8477,1,2,Node6,picture8.jpg,2,neutral,1,threat,2,neutral,1,neutral
sub18,9,5288,1,2,Node10,picture2.jpg,2,threat,1,neutral,2,threat,1,threat
sub18,10,14702,1,1,Node9,picture3.jpg,2,threat,2,threat,1,neutral,1,neutral
sub18,11,16044,1,1,Node6,picture8.jpg,2,neutral,2,neutral,1,neutral,1,threat
sub18,12,16206,1,1,Node8,picture4.jpg,2,neutral,2,neutral,1,neutral,1,threat
sub18,13,11604,0,3,Node3,picture3.jpg,1,neutral,1,neutral,2,threat,1,neutral
sub18,14,8580,1,3,Node10,picture2.jpg,2,threat,1,threat,1,neutral,2,threat
sub18,15,14497,1,1,Node3,picture3.jpg,1,neutral,1,neutral,2,neutral,2,threat
sub18,16,15230,1,1,Node2,picture1.jpg,1,threat,1,threat,2,threat,2,neutral
sub18,17,7395,1,3,Node10,picture2.jpg,2,threat,1,neutral,1,threat,2,threat
sub18,18,5605,1,3,Node3,picture3.jpg,1,neutral,2,neutral,2,threat,1,neutral
sub18,19,11635,1,1,Node1,picture7.jpg,1,neutral,1,neutral,2,threat,2,neutral
sub18,20,10725,1,3,Node4,picture4.jpg,1,threat,2,threat,2,neutral,1,threat
sub18,21,7060,1,2,Node1,picture7.jpg,1,neutral,2,threat,1,neutral,2,neutral
sub18,22,7482,1,3,Node3,picture3.jpg,1,neutral,2,threat,2,neutral,1,neutral
sub18,23,8759,1,1,Node10,picture2.jpg,2,threat,2,threat,1,threat,1,neutral
sub18,24,14321,1,3,Node8,picture4.jpg,2,neutral,1,threat,1,neutral,2,neutral
sub18,25,7368,1,3,Node1,picture7.jpg,1,neutral,2,threat,2,neutral,1,neutral
sub18,26,4926,1,2,Node4,picture4.jpg,1,threat,2,threat,1,threat,2,neutral
sub18,27,8933,1,2,Node2,picture1.jpg,1,threat,2,neutral,1,threat,2,threat
sub18,28,20013,1,1,Node10,picture2.jpg,2,threat,2,threat,1,neutral,1,threat
sub18,29,11030,1,1,Node4,picture4.jpg,1,threat,1,threat,2,threat,2,neutral
sub18,30,5172,1,2,Node2,picture1.jpg,1,threat,2,threat,1,threat,2,neutral
sub18,31,2560,1,1,Node3,picture3.jpg,1,neutral,1,neutral,2,threat,2,neutral
sub18,32,6506,1,2,Node6,picture8.jpg,2,neutral,1,neutral,2,neutral,1,threat
sub18,33,7911,1,2,Node10,picture2.jpg,2,threat,1,threat,2,threat,1,neutral
sub18,34,19289,1,1,Node8,picture4.jpg,2,neutral,2,neutral,1,threat,1,neutral
sub18,35,10016,1,1,Node6,picture8.jpg,2,neutral,2,neutral,1,threat,1,neutral
sub18,36,10517,1,2,Node8,picture4.jpg,2,neutral,1,neutral,2,neutral,1,threat
sub18,37,19842,1,2,Node4,picture4.jpg,1,threat,2,neutral,1,threat,2,threat
sub18,38,6581,1,2,Node9,picture3.jpg,2,threat,1,neutral,2,threat,1,neutral
sub18,39,8161,1,1,Node1,picture7.jpg,1,neutral,1,neutral,2,neutral,2,threat
sub18,40,7268,1,3,Node2,picture1.jpg,1,threat,2,neutral,2,threat,1,threat
sub18,41,5303,1,2,Node3,picture3.jpg,1,neutral,2,neutral,1,neutral,2,threat
sub18,42,8492,1,3,Node6,picture8.jpg,2,neutral,1,threat,1,neutral,2,neutral
sub18,43,12865,1,3,Node9,picture3.jpg,2,threat,1,neutral,1,neutral,2,threat
sub18,44,4797,1,2,Node1,picture7.jpg,1,neutral,2,neutral,1,neutral,2,threat
sub18,45,6857,1,3,Node8,picture4.jpg,2,neutral,1,neutral,1,threat,2,neutral
sub18,46,2953,1,3,Node1,picture7.jpg,1,neutral,2,neutral,2,threat,1,neutral
sub18,47,4217,1,2,Node8,picture4.jpg,2,neutral,1,threat,2,neutral,1,neutral
sub18,48,5859,1,3,Node4,picture4.jpg,1,threat,2,neutral,2,threat,1,threat
sub19,1,29707,1,1,Node3,picture1.jpg,1,neutral,1,neutral,2,neutral,2,threat
sub19,2,3829,1,3,Node8,picture9.jpg,2,neutral,1,neutral,1,threat,2,neutral
sub19,3,2294,1,3,Node4,picture3.jpg,1,threat,2,threat,2,neutral,1,threat
sub19,4,3716,1,2,Node2,picture7.jpg,1,neutral,2,threat,1,neutral,2,neutral
sub19,5,4866,1,2,Node10,picture1.jpg,2,threat,1,neutral,2,threat,1,threat
sub19,6,4059,1,1,Node2,picture7.jpg,1,neutral,1,neutral,2,threat,2,neutral
sub19,7,6428,1,3,Node10,picture1.jpg,2,threat,1,threat,1,neutral,2,threat
sub19,8,4532,1,1,Node6,picture3.jpg,2,neutral,2,neutral,1,neutral,1,threat
sub19,9,6790,1,3,Node2,picture7.jpg,1,neutral,2,threat,2,neutral,1,neutral
sub19,10,10035,1,2,Node10,picture1.jpg,2,threat,1,threat,2,threat,1,neutral
sub19,11,4003,1,2,Node9,picture2.jpg,2,threat,1,neutral,2,threat,1,threat
sub19,12,2624,1,1,Node3,picture1.jpg,1,neutral,1,neutral,2,threat,2,neutral
sub19,13,3754,1,1,Node8,picture9.jpg,2,neutral,2,neutral,1,threat,1,neutral
sub19,14,5467,1,3,Node1,picture4.jpg,1,threat,2,threat,2,threat,1,threat
sub19,15,3266,1,2,Node6,picture3.jpg,2,neutral,1,threat,2,neutral,1,neutral
sub19,16,3827,1,2,Node1,picture4.jpg,1,threat,2,threat,1,threat,2,threat
sub19,17,3044,1,3,Node2,picture7.jpg,1,neutral,2,neutral,2,threat,1,neutral
sub19,18,3547,1,3,Node3,picture1.jpg,1,neutral,2,threat,2,neutral,1,neutral
sub19,19,4125,1,3,Node8,picture9.jpg,2,neutral,1,threat,1,neutral,2,neutral
sub19,20,3892,1,1,Node10,picture1.jpg,2,threat,2,threat,1,neutral,1,threat
sub19,21,2618,1,1,Node9,picture2.jpg,2,threat,2,threat,1,threat,1,neutral
sub19,22,3194,1,2,Node3,picture1.jpg,1,neutral,2,neutral,1,neutral,2,threat
sub19,23,3914,1,2,Node8,picture9.jpg,2,neutral,1,neutral,2,neutral,1,threat
sub19,24,2797,1,1,Node4,picture3.jpg,1,threat,1,threat,2,neutral,2,threat
sub19,25,6342,1,1,Node10,picture1.jpg,2,threat,2,threat,1,threat,1,neutral
sub19,26,7475,1,1,Node6,picture3.jpg,2,neutral,2,neutral,1,threat,1,neutral
sub19,27,5205,1,3,Node9,picture2.jpg,2,threat,1,neutral,1,threat,2,threat
sub19,28,4569,1,1,Node4,picture3.jpg,1,threat,1,threat,2,threat,2,neutral
sub19,29,7647,1,1,Node1,picture4.jpg,1,threat,1,threat,2,threat,2,threat
sub19,30,2356,1,3,Node4,picture3.jpg,1,threat,2,neutral,2,threat,1,threat
sub19,31,2510,1,1,Node9,picture2.jpg,2,threat,2,threat,1,neutral,1,threat
sub19,32,1960,1,3,Node6,picture3.jpg,2,neutral,1,neutral,1,threat,2,neutral
sub19,33,1827,1,1,Node8,picture9.jpg,2,neutral,2,neutral,1,neutral,1,threat
sub19,34,3200,1,2,Node3,picture1.jpg,1,neutral,2,threat,1,neutral,2,neutral
sub19,35,2478,1,2,Node4,picture3.jpg,1,threat,2,neutral,1,threat,2,threat
sub19,36,3000,1,2,Node9,picture2.jpg,2,threat,1,threat,2,threat,1,neutral
sub19,37,3031,1,3,Node10,picture1.jpg,2,threat,1,neutral,1,threat,2,threat
sub19,38,3212,1,3,Node9,picture2.jpg,2,threat,1,threat,1,neutral,2,threat
sub19,39,3765,0,3,Node4,picture3.jpg,1,threat,1,neutral,2,neutral,1,threat
sub19,40,9677,1,2,Node8,picture9.jpg,2,neutral,1,threat,2,neutral,1,neutral
sub19,41,1935,1,2,Node4,picture3.jpg,1,threat,2,threat,1,threat,2,neutral
sub19,42,3111,1,1,Node1,picture4.jpg,1,threat,1,threat,2,threat,2,threat
sub19,43,3529,1,3,Node6,picture3.jpg,2,neutral,1,threat,1,neutral,2,neutral
sub19,44,4143,1,2,Node1,picture4.jpg,1,threat,2,threat,1,threat,2,threat
sub19,45,5843,1,3,Node3,picture1.jpg,1,neutral,2,neutral,2,threat,1,neutral
sub19,46,3172,1,2,Node2,picture7.jpg,1,neutral,2,neutral,1,neutral,2,threat
sub19,47,2227,1,3,Node1,picture4.jpg,1,threat,2,threat,2,threat,1,threat
sub19,48,4499,1,1,Node2,picture7.jpg,1,neutral,1,neutral,2,neutral,2,threat
sub20,1,9244,1,1,Node4,picture3.jpg,1,threat,1,threat,2,threat,2,threat
sub20,2,3637,1,1,Node6,picture7.jpg,2,neutral,2,neutral,1,threat,1,neutral
sub20,3,2283,1,2,Node4,picture3.jpg,1,threat,2,threat,1,threat,2,threat
sub20,4,3095,1,1,Node3,picture4.jpg,1,threat,1,threat,2,threat,2,threat
sub20,5,2622,1,2,Node9,picture3.jpg,2,neutral,1,neutral,2,neutral,1,threat
sub20,6,2181,1,3,Node2,picture9.jpg,1,neutral,2,neutral,2,threat,1,neutral
sub20,7,2820,1,1,Node10,picture1.jpg,2,threat,2,threat,1,threat,1,neutral
sub20,8,2275,1,2,Node8,picture2.jpg,2,threat,1,neutral,2,threat,1,threat
sub20,9,1814,0,2,Node6,picture7.jpg,2,neutral,1,neutral,2,neutral,2,neutral
sub20,10,2668,1,2,Node3,picture4.jpg,1,threat,2,threat,1,threat,2,threat
sub20,11,3421,1,1,Node9,picture3.jpg,2,neutral,2,neutral,1,threat,1,neutral
sub20,12,2941,1,2,Node6,picture7.jpg,2,neutral,1,neutral,2,neutral,1,threat
sub20,13,1923,1,1,Node4,picture3.jpg,1,threat,1,threat,2,threat,2,threat
sub20,14,2465,1,2,Node2,picture9.jpg,1,neutral,2,threat,1,neutral,2,neutral
sub20,15,1822,1,2,Node4,picture3.jpg,1,threat,2,threat,1,threat,2,threat
sub20,16,1985,1,3,Node3,picture4.jpg,1,threat,2,threat,2,threat,1,threat
sub20,17,4693,1,3,Node9,picture3.jpg,2,neutral,1,threat,1,neutral,2,neutral
sub20,18,3028,1,3,Node10,picture1.jpg,2,threat,1,neutral,1,threat,2,threat
sub20,19,2870,0,2,Node6,picture7.jpg,2,neutral,2,neutral,2,neutral,1,neutral
sub20,20,2998,1,3,Node4,picture3.jpg,1,threat,2,threat,2,threat,1,threat
sub20,21,2680,1,1,Node1,picture5.jpg,1,neutral,1,neutral,2,neutral,2,neutral
sub20,22,2768,1,1,Node8,picture2.jpg,2,threat,2,threat,1,neutral,1,threat
sub20,23,2354,1,2,Node10,picture1.jpg,2,threat,1,threat,2,threat,1,neutral
sub20,24,3418,1,3,Node6,picture7.jpg,2,neutral,1,neutral,1,threat,2,neutral
sub20,25,2425,1,1,Node3,picture4.jpg,1,threat,1,threat,2,threat,2,threat
sub20,26,2897,1,1,Node2,picture9.jpg,1,neutral,1,neutral,2,neutral,2,threat
sub20,27,2012,1,1,Node9,picture3.jpg,2,neutral,2,neutral,1,neutral,1,threat
sub20,28,2321,1,3,Node8,picture2.jpg,2,threat,1,threat,1,neutral,2,threat
sub20,29,3510,1,2,Node10,picture1.jpg,2,threat,1,neutral,2,threat,1,threat
sub20,30,2110,1,2,Node1,picture5.jpg,1,neutral,2,neutral,1,neutral,2,neutral
sub20,31,4117,1,3,Node3,picture4.jpg,1,threat,2,threat,2,threat,1,threat
sub20,32,1984,1,2,Node9,picture3.jpg,2,neutral,1,threat,2,neutral,1,neutral
sub20,33,3445,1,1,Node8,picture2.jpg,2,threat,2,threat,1,threat,1,neutral
sub20,34,2513,1,2,Node1,picture5.jpg,1,neutral,2,neutral,1,neutral,2,neutral
sub20,35,3159,1,3,Node2,picture9.jpg,1,neutral,2,threat,2,neutral,1,neutral
sub20,36,3069,1,3,Node10,picture1.jpg,2,threat,1,threat,1,neutral,2,threat
sub20,37,2617,1,3,Node8,picture2.jpg,2,threat,1,neutral,1,threat,2,threat
sub20,38,2511,1,2,Node2,picture9.jpg,1,neutral,2,neutral,1,neutral,2,threat
sub20,39,2201,1,2,Node6,picture7.jpg,2,neutral,1,threat,2,neutral,1,neutral
sub20,40,2038,1,2,Node8,picture2.jpg,2,threat,1,threat,2,threat,1,neutral
sub20,41,2985,1,1,Node6,picture7.jpg,2,neutral,2,neutral,1,neutral,1,threat
sub20,42,2229,1,3,Node4,picture3.jpg,1,threat,2,threat,2,threat,1,threat
sub20,43,3191,1,3,Node6,picture7.jpg,2,neutral,1,threat,1,neutral,2,neutral
sub20,44,2740,1,2,Node3,picture4.jpg,1,threat,2,threat,1,threat,2,threat
sub20,45,2005,1,3,Node9,picture3.jpg,2,neutral,1,neutral,1,threat,2,neutral
sub20,46,3889,1,1,Node10,picture1.jpg,2,threat,2,threat,1,neutral,1,threat
sub20,47,2253,1,3,Node1,picture5.jpg,1,neutral,2,neutral,2,neutral,1,neutral
sub20,48,3309,1,1,Node2,picture9.jpg,1,neutral,1,neutral,2,threat,2,neutral
sub21,1,13706,1,1,Node1,picture1.jpg,1,threat,1,threat,2,threat,2,threat
sub21,2,4793,1,3,Node4,picture5.jpg,1,neutral,2,neutral,2,neutral,1,neutral
sub21,3,7331,1,1,Node1,picture1.jpg,1,threat,1,threat,2,threat,2,threat
sub21,4,3154,1,1,Node9,picture4.jpg,2,threat,2,threat,1,neutral,1,neutral
sub21,5,15653,0,1,Node10,picture10.jpg,2,neutral,2,neutral,2,neutral,1,neutral
sub21,6,1114,0,2,Node8,picture3.jpg,2,threat,2,neutral,2,threat,1,neutral
sub21,7,6953,1,1,Node4,picture5.jpg,1,neutral,1,neutral,2,neutral,2,neutral
sub21,8,4965,1,2,Node2,picture9.jpg,1,neutral,2,threat,1,neutral,2,neutral
sub21,9,3003,1,1,Node6,picture3.jpg,2,neutral,2,neutral,1,neutral,1,threat
sub21,10,3235,1,3,Node8,picture3.jpg,2,threat,1,neutral,1,threat,2,threat
sub21,11,2048,1,2,Node9,picture4.jpg,2,threat,1,neutral,2,threat,1,neutral
sub21,12,2664,1,3,Node8,picture3.jpg,2,threat,1,threat,1,neutral,2,threat
sub21,13,7476,1,2,Node10,picture10.jpg,2,neutral,1,neutral,2,neutral,1,neutral
sub21,14,59388,0,3,Node8,picture3.jpg,2,threat,1,threat,2,threat,2,threat
sub21,15,6153,0,1,Node4,picture5.jpg,1,neutral,1,neutral,1,neutral,2,threat
sub21,16,759,1,2,Node6,picture3.jpg,2,neutral,1,threat,2,neutral,1,neutral
sub21,17,23913,0,2,Node8,picture3.jpg,2,threat,2,threat,2,threat,1,threat
sub21,18,2160,0,1,Node4,picture5.jpg,1,neutral,1,neutral,1,threat,2,neutral
sub21,19,9826,0,2,Node9,picture4.jpg,2,threat,2,threat,2,threat,1,threat
sub21,20,3697,0,2,Node4,picture5.jpg,1,neutral,1,threat,1,neutral,2,neutral
sub21,21,9900,1,2,Node10,picture10.jpg,2,neutral,1,neutral,2,neutral,1,neutral
sub21,22,1287,1,1,Node9,picture4.jpg,2,threat,2,threat,1,neutral,1,neutral
sub21,23,1988,1,2,Node4,picture5.jpg,1,neutral,2,neutral,1,neutral,2,neutral
sub21,24,1688,1,1,Node2,picture9.jpg,1,neutral,1,neutral,2,neutral,2,threat
sub21,25,2090,1,2,Node8,picture3.jpg,2,threat,1,threat,2,threat,1,neutral
sub21,26,1304,1,3,Node10,picture10.jpg,2,neutral,1,neutral,1,neutral,2,neutral
sub21,27,1201,1,2,Node9,picture4.jpg,2,threat,1,neutral,2,threat,1,neutral
sub21,28,12762,1,1,Node10,picture10.jpg,2,neutral,2,neutral,1,neutral,1,neutral
sub21,29,2223,0,3,Node9,picture4.jpg,2,threat,2,threat,1,threat,2,threat
sub21,30,3080,1,3,Node10,picture10.jpg,2,neutral,1,neutral,1,neutral,2,neutral
sub21,31,5704,1,1,Node6,picture3.jpg,2,neutral,2,neutral,1,threat,1,neutral
sub21,32,2339,1,1,Node8,picture3.jpg,2,threat,2,threat,1,neutral,1,threat
sub21,33,10024,1,1,Node4,picture5.jpg,1,neutral,1,neutral,2,neutral,2,neutral
sub21,34,6657,0,3,Node8,picture3.jpg,2,threat,2,neutral,1,neutral,2,threat
sub21,35,2302,0,2,Node1,picture1.jpg,1,threat,2,threat,1,threat,1,neutral
sub21,36,736,0,1,Node6,picture3.jpg,2,neutral,2,neutral,1,neutral,2,neutral
sub21,37,3734,1,3,Node1,picture1.jpg,1,threat,2,threat,2,threat,1,threat
sub21,38,1899,1,1,Node10,picture10.jpg,2,neutral,2,neutral,1,neutral,1,neutral
sub21,39,9377,1,2,Node3,picture2.jpg,1,threat,2,threat,1,threat,2,threat
sub21,40,2302,1,2,Node8,picture3.jpg,2,threat,1,neutral,2,threat,1,threat
sub21,41,3776,1,3,Node9,picture4.jpg,2,threat,1,neutral,1,neutral,2,threat
sub21,42,1967,0,2,Node6,picture3.jpg,2,neutral,2,threat,2,neutral,1,neutral
sub21,43,2600,0,2,Node8,picture3.jpg,2,threat,2,threat,2,threat,1,threat
sub21,44,11296,1,2,Node3,picture2.jpg,1,threat,2,threat,1,threat,2,threat
sub21,45,8422,1,2,Node6,picture3.jpg,2,neutral,1,neutral,2,neutral,1,threat
sub21,46,3046,0,2,Node8,picture3.jpg,2,threat,1,threat,2,threat,2,threat
sub21,47,2863,1,2,Node1,picture1.jpg,1,threat,2,threat,1,threat,2,threat
sub21,48,3875,1,1,Node2,picture9.jpg,1,neutral,1,neutral,2,threat,2,neutral
sub22,1,33664,1,1,Node8,picture2.jpg,2,threat,2,threat,1,threat,1,neutral
sub22,2,3499,1,1,Node9,picture9.jpg,2,neutral,2,neutral,1,neutral,1,threat
sub22,3,5179,1,3,Node8,picture2.jpg,2,threat,1,threat,1,neutral,2,threat
sub22,4,6945,1,3,Node6,picture8.jpg,2,neutral,1,neutral,1,threat,2,neutral
sub22,5,2268,1,2,Node10,picture10.jpg,2,neutral,1,threat,2,neutral,1,threat
sub22,6,3277,1,3,Node8,picture2.jpg,2,threat,1,neutral,1,threat,2,threat
sub22,7,3625,1,1,Node4,picture1.jpg,1,threat,1,threat,2,neutral,2,neutral
sub22,8,3337,1,2,Node3,picture1.jpg,1,neutral,2,threat,1,neutral,2,neutral
sub22,9,4120,1,3,Node1,picture4.jpg,1,neutral,2,neutral,2,neutral,1,neutral
sub22,10,3103,1,1,Node2,picture4.jpg,1,threat,1,threat,2,neutral,2,threat
sub22,11,6218,1,1,Node9,picture9.jpg,2,neutral,2,neutral,1,threat,1,neutral
sub22,12,7322,1,1,Node6,picture8.jpg,2,neutral,2,neutral,1,threat,1,neutral
sub22,13,4801,1,1,Node8,picture2.jpg,2,threat,2,threat,1,neutral,1,threat
sub22,14,4636,1,3,Node9,picture9.jpg,2,neutral,1,neutral,1,threat,2,neutral
sub22,15,2909,1,1,Node3,picture1.jpg,1,neutral,1,neutral,2,neutral,2,threat
sub22,16,5293,1,3,Node10,picture10.jpg,2,neutral,1,threat,1,threat,2,neutral
sub22,17,2840,1,2,Node6,picture8.jpg,2,neutral,1,neutral,2,neutral,1,threat
sub22,18,3170,1,3,Node10,picture10.jpg,2,neutral,1,threat,1,threat,2,neutral
sub22,19,3148,1,3,Node9,picture9.jpg,2,neutral,1,threat,1,neutral,2,neutral
sub22,20,7754,1,3,Node3,picture1.jpg,1,neutral,2,threat,2,neutral,1,neutral
sub22,21,7340,1,1,Node1,picture4.jpg,1,neutral,1,neutral,2,neutral,2,neutral
sub22,22,9018,1,1,Node10,picture10.jpg,2,neutral,2,neutral,1,threat,1,threat
sub22,23,4028,1,3,Node6,picture8.jpg,2,neutral,1,threat,1,neutral,2,neutral
sub22,24,2994,1,2,Node8,picture2.jpg,2,threat,1,neutral,2,threat,1,threat
sub22,25,5429,1,2,Node4,picture1.jpg,1,threat,2,neutral,1,threat,2,neutral
sub22,26,13077,1,3,Node1,picture4.jpg,1,neutral,2,neutral,2,neutral,1,neutral
sub22,27,4703,1,1,Node10,picture10.jpg,2,neutral,2,neutral,1,threat,1,threat
sub22,28,4747,1,2,Node6,picture8.jpg,2,neutral,1,threat,2,neutral,1,neutral
sub22,29,8217,1,2,Node4,picture1.jpg,1,threat,2,neutral,1,threat,2,neutral
sub22,30,7360,1,3,Node2,picture4.jpg,1,threat,2,neutral,2,threat,1,threat
sub22,31,4474,1,2,Node9,picture9.jpg,2,neutral,1,threat,2,neutral,1,neutral
sub22,32,11082,1,3,Node2,picture4.jpg,1,threat,2,threat,2,neutral,1,threat
sub22,33,3941,1,1,Node3,picture1.jpg,1,neutral,1,neutral,2,threat,2,neutral
sub22,34,4462,1,1,Node1,picture4.jpg,1,neutral,1,neutral,2,neutral,2,neutral
sub22,35,54298,1,1,Node4,picture1.jpg,1,threat,1,threat,2,neutral,2,neutral
sub22,36,3970,1,2,Node3,picture1.jpg,1,neutral,2,neutral,1,neutral,2,threat
sub22,37,3394,1,3,Node4,picture1.jpg,1,threat,2,neutral,2,neutral,1,threat
sub22,38,12005,1,1,Node6,picture8.jpg,2,neutral,2,neutral,1,neutral,1,threat
sub22,39,4984,1,3,Node3,picture1.jpg,1,neutral,2,neutral,2,threat,1,neutral
sub22,40,2730,1,2,Node10,picture10.jpg,2,neutral,1,threat,2,neutral,1,threat
sub22,41,3562,1,2,Node8,picture2.jpg,2,threat,1,threat,2,threat,1,neutral
sub22,42,5317,1,2,Node1,picture4.jpg,1,neutral,2,neutral,1,neutral,2,neutral
sub22,43,7372,1,2,Node2,picture4.jpg,1,threat,2,neutral,1,threat,2,threat
sub22,44,3360,1,2,Node9,picture9.jpg,2,neutral,1,neutral,2,neutral,1,threat
sub22,45,13099,1,1,Node2,picture4.jpg,1,threat,1,threat,2,threat,2,neutral
sub22,46,3328,1,2,Node1,picture4.jpg,1,neutral,2,neutral,1,neutral,2,neutral
sub22,47,2251,1,2,Node2,picture4.jpg,1,threat,2,threat,1,threat,2,neutral
sub22,48,9889,1,3,Node4,picture1.jpg,1,threat,2,neutral,2,neutral,1,threat
sub23,1,6049,1,2,Node3,picture3.jpg,1,threat,2,threat,1,threat,2,neutral
sub23,2,3056,1,2,Node10,picture4.jpg,2,threat,1,neutral,2,threat,1,neutral
sub23,3,2841,1,1,Node6,picture1.jpg,2,neutral,2,neutral,1,neutral,1,neutral
sub23,4,2824,1,1,Node10,picture4.jpg,2,threat,2,threat,1,neutral,1,neutral
sub23,5,4113,1,2,Node9,picture2.jpg,2,threat,1,neutral,2,threat,1,threat
sub23,6,2913,1,1,Node1,picture1.jpg,1,threat,1,threat,2,neutral,2,neutral
sub23,7,4565,1,2,Node4,picture10.jpg,1,neutral,2,neutral,1,neutral,2,threat
sub23,8,2193,1,1,Node2,picture9.jpg,1,neutral,1,neutral,2,threat,2,threat
sub23,9,4442,1,1,Node4,picture10.jpg,1,neutral,1,neutral,2,neutral,2,threat
sub23,10,2194,1,2,Node3,picture3.jpg,1,threat,2,neutral,1,threat,2,threat
sub23,11,4033,1,3,Node1,picture1.jpg,1,threat,2,neutral,2,neutral,1,threat
sub23,12,2141,1,3,Node10,picture4.jpg,2,threat,1,neutral,1,neutral,2,threat
sub23,13,2362,1,3,Node4,picture10.jpg,1,neutral,2,threat,2,neutral,1,neutral
sub23,14,2914,1,1,Node3,picture3.jpg,1,threat,1,threat,2,threat,2,neutral
sub23,15,2882,1,1,Node9,picture2.jpg,2,threat,2,threat,1,threat,1,neutral
sub23,16,2562,1,3,Node3,picture3.jpg,1,threat,2,threat,2,neutral,1,threat
sub23,17,2208,1,3,Node10,picture4.jpg,2,threat,1,neutral,1,neutral,2,threat
sub23,18,4692,1,2,Node1,picture1.jpg,1,threat,2,neutral,1,threat,2,neutral
sub23,19,6583,1,3,Node2,picture9.jpg,1,neutral,2,threat,2,threat,1,neutral
sub23,20,2728,1,2,Node4,picture10.jpg,1,neutral,2,threat,1,neutral,2,neutral
sub23,21,2817,1,3,Node1,picture1.jpg,1,threat,2,neutral,2,neutral,1,threat
sub23,22,3155,1,1,Node2,picture9.jpg,1,neutral,1,neutral,2,threat,2,threat
sub23,23,5611,1,1,Node8,picture8.jpg,2,neutral,2,neutral,1,neutral,1,threat
sub23,24,2419,1,2,Node6,picture1.jpg,2,neutral,1,neutral,2,neutral,1,neutral
sub23,25,2852,1,2,Node8,picture8.jpg,2,neutral,1,neutral,2,neutral,1,threat
sub23,26,3548,1,2,Node2,picture9.jpg,1,neutral,2,threat,1,neutral,2,threat
sub23,27,1966,1,2,Node9,picture2.jpg,2,threat,1,threat,2,threat,1,neutral
sub23,28,1629,1,2,Node6,picture1.jpg,2,neutral,1,neutral,2,neutral,1,neutral
sub23,29,1460,1,2,Node10,picture4.jpg,2,threat,1,neutral,2,threat,1,neutral
sub23,30,1681,1,3,Node6,picture1.jpg,2,neutral,1,neutral,1,neutral,2,neutral
sub23,31,1368,1,2,Node8,picture8.jpg,2,neutral,1,threat,2,neutral,1,neutral
sub23,32,1625,1,3,Node9,picture2.jpg,2,threat,1,neutral,1,threat,2,threat
sub23,33,2123,1,3,Node6,picture1.jpg,2,neutral,1,neutral,1,neutral,2,neutral
sub23,34,2799,0,2,Node10,picture4.jpg,2,threat,2,threat,2,threat,1,neutral
sub23,35,5797,1,3,Node9,picture2.jpg,2,threat,1,threat,1,neutral,2,threat
sub23,36,1941,1,3,Node8,picture8.jpg,2,neutral,1,neutral,1,threat,2,neutral
sub23,37,2901,1,2,Node2,picture9.jpg,1,neutral,2,threat,1,neutral,2,threat
sub23,38,2990,1,1,Node4,picture10.jpg,1,neutral,1,neutral,2,threat,2,neutral
sub23,39,2683,1,1,Node3,picture3.jpg,1,threat,1,threat,2,neutral,2,threat
sub23,40,2829,1,1,Node9,picture2.jpg,2,threat,2,threat,1,neutral,1,threat
sub23,41,3114,1,1,Node10,picture4.jpg,2,threat,2,threat,1,neutral,1,neutral
sub23,42,4411,1,3,Node8,picture8.jpg,2,neutral,1,threat,1,neutral,2,neutral
sub23,43,4585,1,3,Node4,picture10.jpg,1,neutral,2,neutral,2,threat,1,neutral
sub23,44,3237,1,1,Node1,picture1.jpg,1,threat,1,threat,2,neutral,2,neutral
sub23,45,1665,1,3,Node3,picture3.jpg,1,threat,2,neutral,2,threat,1,threat
sub23,46,5092,1,2,Node1,picture1.jpg,1,threat,2,neutral,1,threat,2,neutral
sub23,47,2866,1,1,Node6,picture1.jpg,2,neutral,2,neutral,1,neutral,1,neutral
sub23,48,4519,1,1,Node8,picture8.jpg,2,neutral,2,neutral,1,threat,1,neutral
sub24,1,8014,1,2,Node8,picture3.jpg,2,threat,1,threat,2,threat,1,threat
sub24,2,4065,1,3,Node10,picture4.jpg,2,threat,1,threat,1,neutral,2,threat
sub24,3,4376,1,2,Node6,picture1.jpg,2,neutral,1,neutral,2,neutral,1,threat
sub24,4,3066,0,2,Node4,picture2.jpg,1,threat,2,neutral,1,threat,1,neutral
sub24,5,2999,0,1,Node10,picture4.jpg,2,threat,2,threat,2,neutral,1,threat
sub24,6,2278,0,2,Node10,picture4.jpg,2,threat,1,neutral,2,threat,2,neutral
sub24,7,6456,1,1,Node9,picture2.jpg,2,neutral,2,neutral,1,neutral,1,threat
sub24,8,3587,1,3,Node3,picture5.jpg,1,neutral,2,neutral,2,threat,1,neutral
sub24,9,4605,1,1,Node1,picture1.jpg,1,threat,1,threat,2,neutral,2,threat
sub24,10,3826,1,1,Node4,picture2.jpg,1,threat,1,threat,2,threat,2,neutral
sub24,11,3566,1,2,Node3,picture5.jpg,1,neutral,2,threat,1,neutral,2,neutral
sub24,12,3954,1,3,Node2,picture6.jpg,1,neutral,2,threat,2,neutral,1,neutral
sub24,13,4541,1,2,Node3,picture5.jpg,1,neutral,2,neutral,1,neutral,2,threat
sub24,14,3631,1,2,Node9,picture2.jpg,2,neutral,1,threat,2,neutral,1,neutral
sub24,15,4676,1,2,Node2,picture6.jpg,1,neutral,2,neutral,1,neutral,2,threat
sub24,16,3355,1,3,Node10,picture4.jpg,2,threat,1,neutral,1,threat,2,threat
sub24,17,4429,1,3,Node4,picture2.jpg,1,threat,2,threat,2,neutral,1,threat
sub24,18,3376,1,3,Node6,picture1.jpg,2,neutral,1,neutral,1,threat,2,neutral
sub24,19,4209,0,1,Node4,picture2.jpg,1,threat,1,threat,1,neutral,2,neutral
sub24,20,4133,1,1,Node10,picture4.jpg,2,threat,2,threat,1,threat,1,neutral
sub24,21,3317,1,2,Node9,picture2.jpg,2,neutral,1,neutral,2,neutral,1,threat
sub24,22,2397,1,3,Node2,picture6.jpg,1,neutral,2,neutral,2,threat,1,neutral
sub24,23,2909,0,1,Node10,picture4.jpg,2,threat,2,threat,2,neutral,1,neutral
sub24,24,3792,1,1,Node8,picture3.jpg,2,threat,2,threat,1,threat,1,threat
sub24,25,3749,1,1,Node1,picture1.jpg,1,threat,1,threat,2,threat,2,neutral
sub24,26,2351,1,2,Node4,picture2.jpg,1,threat,2,threat,1,threat,2,neutral
sub24,27,3883,1,2,Node6,picture1.jpg,2,neutral,1,threat,2,neutral,1,neutral
sub24,28,4701,1,2,Node4,picture2.jpg,1,threat,2,neutral,1,threat,2,threat
sub24,29,3073,1,3,Node6,picture1.jpg,2,neutral,1,threat,1,neutral,2,neutral
sub24,30,2549,1,2,Node8,picture3.jpg,2,threat,1,threat,2,threat,1,threat
sub24,31,3998,1,1,Node3,picture5.jpg,1,neutral,1,neutral,2,neutral,2,threat
sub24,32,2265,1,2,Node2,picture6.jpg,1,neutral,2,threat,1,neutral,2,neutral
sub24,33,5210,0,2,Node3,picture5.jpg,1,neutral,2,neutral,1,neutral,1,threat
sub24,34,4528,1,3,Node4,picture2.jpg,1,threat,2,neutral,2,threat,1,threat
sub24,35,4288,1,1,Node6,picture1.jpg,2,neutral,2,neutral,1,threat,1,neutral
sub24,36,3989,1,1,Node10,picture4.jpg,2,threat,2,threat,1,neutral,1,threat
sub24,37,2041,1,3,Node8,picture3.jpg,2,threat,1,threat,1,threat,2,threat
sub24,38,4763,1,3,Node9,picture2.jpg,2,neutral,1,neutral,1,threat,2,neutral
sub24,39,2796,1,1,Node8,picture3.jpg,2,threat,2,threat,1,threat,1,threat
sub24,40,2696,0,2,Node10,picture4.jpg,2,threat,2,neutral,2,threat,1,threat
sub24,41,3484,1,1,Node4,picture2.jpg,1,threat,1,threat,2,neutral,2,threat
sub24,42,4547,0,1,Node10,picture4.jpg,2,threat,2,threat,1,threat,2,neutral
sub24,43,5412,1,2,Node10,picture4.jpg,2,threat,1,threat,2,threat,1,neutral
sub24,44,1828,1,3,Node8,picture3.jpg,2,threat,1,threat,1,threat,2,threat
sub24,45,3625,1,2,Node10,picture4.jpg,2,threat,1,neutral,2,threat,1,threat
sub24,46,2085,1,1,Node2,picture6.jpg,1,neutral,1,neutral,2,threat,2,neutral
sub24,47,3022,1,2,Node1,picture1.jpg,1,threat,2,neutral,1,threat,2,threat
sub24,48,2476,1,1,Node2,picture6.jpg,1,neutral,1,neutral,2,neutral,2,threat
sub25,1,16146,1,2,Node6,picture6.jpg,2,neutral,1,threat,2,neutral,1,neutral
sub25,2,16159,1,2,Node10,picture2.jpg,2,neutral,1,threat,2,neutral,1,neutral
sub25,3,6803,1,3,Node9,picture1.jpg,2,threat,1,neutral,1,threat,2,threat
sub25,4,5271,1,3,Node4,picture3.jpg,1,threat,2,neutral,2,neutral,1,threat
sub25,5,5317,0,3,Node2,picture3.jpg,1,neutral,2,neutral,1,threat,1,neutral
sub25,6,4314,1,2,Node9,picture1.jpg,2,threat,1,neutral,2,threat,1,threat
sub25,7,2317,1,2,Node6,picture6.jpg,2,neutral,1,neutral,2,neutral,1,threat
sub25,8,6153,1,2,Node1,picture4.jpg,1,neutral,2,neutral,1,neutral,2,threat
sub25,9,2228,1,2,Node10,picture2.jpg,2,neutral,1,neutral,2,neutral,1,threat
sub25,10,4307,1,1,Node8,picture5.jpg,2,neutral,2,neutral,1,neutral,1,neutral
sub25,11,3780,1,1,Node3,picture4.jpg,1,threat,1,threat,2,neutral,2,neutral
sub25,12,8170,1,1,Node4,picture3.jpg,1,threat,1,threat,2,neutral,2,neutral
sub25,13,2353,1,2,Node3,picture4.jpg,1,threat,2,neutral,1,threat,2,neutral
sub25,14,2404,0,2,Node10,picture2.jpg,2,neutral,1,neutral,2,neutral,2,threat
sub25,15,3522,1,2,Node4,picture3.jpg,1,threat,2,neutral,1,threat,2,neutral
sub25,16,2150,1,2,Node8,picture5.jpg,2,neutral,1,neutral,2,neutral,1,neutral
sub25,17,2190,1,2,Node1,picture4.jpg,1,neutral,2,threat,1,neutral,2,neutral
sub25,18,3686,1,1,Node10,picture2.jpg,2,neutral,2,neutral,1,neutral,1,threat
sub25,19,3732,1,1,Node9,picture1.jpg,2,threat,2,threat,1,threat,1,neutral
sub25,20,3298,1,1,Node4,picture3.jpg,1,threat,1,threat,2,neutral,2,neutral
sub25,21,3348,1,1,Node9,picture1.jpg,2,threat,2,threat,1,neutral,1,threat
sub25,22,2049,1,3,Node10,picture2.jpg,2,neutral,1,neutral,1,threat,2,neutral
sub25,23,2106,0,3,Node1,picture4.jpg,1,neutral,2,neutral,1,threat,1,neutral
sub25,24,2987,1,2,Node9,picture1.jpg,2,threat,1,threat,2,threat,1,neutral
sub25,25,3018,0,2,Node10,picture2.jpg,2,neutral,2,neutral,2,neutral,1,threat
sub25,26,2292,1,1,Node2,picture3.jpg,1,neutral,1,neutral,2,threat,2,neutral
sub25,27,2335,0,1,Node10,picture2.jpg,2,neutral,2,neutral,1,threat,2,neutral
sub25,28,1993,1,2,Node2,picture3.jpg,1,neutral,2,threat,1,neutral,2,neutral
sub25,29,1956,1,3,Node1,picture4.jpg,1,neutral,2,neutral,2,threat,1,neutral
sub25,30,1963,0,3,Node6,picture6.jpg,2,neutral,1,threat,2,neutral,2,neutral
sub25,31,2979,1,3,Node8,picture5.jpg,2,neutral,1,neutral,1,neutral,2,neutral
sub25,32,3006,1,3,Node9,picture1.jpg,2,threat,1,threat,1,neutral,2,threat
sub25,33,2466,1,1,Node6,picture6.jpg,2,neutral,2,neutral,1,neutral,1,threat
sub25,34,2537,1,3,Node2,picture3.jpg,1,neutral,2,threat,2,neutral,1,neutral
sub25,35,2627,1,3,Node4,picture3.jpg,1,threat,2,neutral,2,neutral,1,threat
sub25,36,2107,1,1,Node1,picture4.jpg,1,neutral,1,neutral,2,threat,2,neutral
sub25,37,2038,1,3,Node3,picture4.jpg,1,threat,2,neutral,2,neutral,1,threat
sub25,38,2098,1,3,Node8,picture5.jpg,2,neutral,1,neutral,1,neutral,2,neutral
sub25,39,7410,1,2,Node3,picture4.jpg,1,threat,2,neutral,1,threat,2,neutral
sub25,40,2358,1,3,Node1,picture4.jpg,1,neutral,2,threat,2,neutral,1,neutral
sub25,41,2417,0,3,Node9,picture1.jpg,2,threat,2,neutral,1,neutral,2,threat
sub25,42,2000,1,3,Node6,picture6.jpg,2,neutral,1,threat,1,neutral,2,neutral
sub25,43,2047,0,3,Node9,picture1.jpg,2,threat,1,neutral,2,neutral,2,threat
sub25,44,4785,1,3,Node10,picture2.jpg,2,neutral,1,threat,1,neutral,2,neutral
sub25,45,3805,1,2,Node8,picture5.jpg,2,neutral,1,neutral,2,neutral,1,neutral
sub25,46,3849,0,2,Node9,picture1.jpg,2,threat,2,neutral,2,threat,1,neutral
sub25,47,2589,1,3,Node6,picture6.jpg,2,neutral,1,neutral,1,threat,2,neutral
sub25,48,3409,1,1,Node8,picture5.jpg,2,neutral,2,neutral,1,neutral,1,neutral
sub26,1,13698,1,3,Node1,picture2.jpg,1,neutral,2,neutral,2,threat,1,neutral
sub26,2,13739,0,3,Node8,picture2.jpg,2,threat,1,threat,2,neutral,2,threat
sub26,3,8561,1,2,Node2,picture9.jpg,1,neutral,2,neutral,1,neutral,2,neutral
sub26,4,8618,0,2,Node10,picture7.jpg,2,neutral,2,threat,2,neutral,1,neutral
sub26,5,4334,1,3,Node4,picture1.jpg,1,threat,2,neutral,2,threat,1,threat
sub26,6,3304,1,1,Node1,picture2.jpg,1,neutral,1,neutral,2,neutral,2,threat
sub26,7,1762,1,3,Node3,picture4.jpg,1,threat,2,neutral,2,threat,1,threat
sub26,8,1807,0,3,Node1,picture2.jpg,1,neutral,2,neutral,1,neutral,1,neutral
sub26,9,1911,0,3,Node10,picture7.jpg,2,neutral,2,threat,1,threat,2,neutral
sub26,10,3377,1,1,Node3,picture4.jpg,1,threat,1,threat,2,neutral,2,threat
sub26,11,5671,1,3,Node9,picture6.jpg,2,neutral,1,neutral,1,neutral,2,neutral
sub26,12,3441,1,2,Node3,picture4.jpg,1,threat,2,threat,1,threat,2,neutral
sub26,13,2511,1,3,Node2,picture9.jpg,1,neutral,2,neutral,2,neutral,1,neutral
sub26,14,6860,1,2,Node1,picture2.jpg,1,neutral,2,threat,1,neutral,2,neutral
sub26,15,2722,1,1,Node2,picture9.jpg,1,neutral,1,neutral,2,neutral,2,neutral
sub26,16,2765,0,1,Node1,picture2.jpg,1,neutral,1,neutral,1,threat,2,threat
sub26,17,7882,1,1,Node6,picture5.jpg,2,neutral,2,neutral,1,threat,1,neutral
sub26,18,3119,1,2,Node2,picture9.jpg,1,neutral,2,neutral,1,neutral,2,neutral
sub26,19,5179,1,2,Node8,picture2.jpg,2,threat,1,threat,2,threat,1,neutral
sub26,20,2121,1,1,Node6,picture5.jpg,2,neutral,2,neutral,1,neutral,1,threat
sub26,21,2169,1,1,Node8,picture2.jpg,2,threat,2,threat,1,threat,1,neutral
sub26,22,3787,1,3,Node10,picture7.jpg,2,neutral,1,threat,1,neutral,2,neutral
sub26,23,4905,1,3,Node6,picture5.jpg,2,neutral,1,neutral,1,threat,2,neutral
sub26,24,3064,1,3,Node3,picture4.jpg,1,threat,2,threat,2,neutral,1,threat
sub26,25,3838,1,3,Node8,picture2.jpg,2,threat,1,threat,1,neutral,2,threat
sub26,26,4278,1,1,Node10,picture7.jpg,2,neutral,2,neutral,1,threat,1,neutral
sub26,27,6488,1,1,Node8,picture2.jpg,2,threat,2,threat,1,neutral,1,threat
sub26,28,3054,1,1,Node2,picture9.jpg,1,neutral,1,neutral,2,neutral,2,neutral
sub26,29,5603,1,2,Node3,picture4.jpg,1,threat,2,neutral,1,threat,2,threat
sub26,30,4086,1,1,Node1,picture2.jpg,1,neutral,1,neutral,2,threat,2,neutral
sub26,31,4125,0,1,Node10,picture7.jpg,2,neutral,2,neutral,1,threat,2,threat
sub26,32,3058,1,1,Node9,picture6.jpg,2,neutral,2,neutral,1,neutral,1,neutral
sub26,33,2206,1,2,Node10,picture7.jpg,2,neutral,1,neutral,2,neutral,1,threat
sub26,34,2242,1,2,Node6,picture5.jpg,2,neutral,1,threat,2,neutral,1,neutral
sub26,35,5173,1,2,Node8,picture2.jpg,2,threat,1,neutral,2,threat,1,threat
sub26,36,5233,0,2,Node1,picture2.jpg,1,neutral,2,neutral,1,neutral,1,threat
sub26,37,2971,1,3,Node9,picture6.jpg,2,neutral,1,neutral,1,neutral,2,neutral
sub26,38,2055,1,2,Node1,picture2.jpg,1,neutral,2,neutral,1,neutral,2,threat
sub26,39,3144,1,1,Node4,picture1.jpg,1,threat,1,threat,2,threat,2,neutral
sub26,40,4449,1,3,Node2,picture9.jpg,1,neutral,2,neutral,2,neutral,1,neutral
sub26,41,3529,1,3,Node4,picture1.jpg,1,threat,2,threat,2,neutral,1,threat
sub26,42,1717,1,1,Node3,picture4.jpg,1,threat,1,threat,2,threat,2,neutral
sub26,43,3017,1,2,Node9,picture6.jpg,2,neutral,1,neutral,2,neutral,1,neutral
sub26,44,6439,1,2,Node6,picture5.jpg,2,neutral,1,neutral,2,neutral,1,threat
sub26,45,2344,1,2,Node10,picture7.jpg,2,neutral,1,threat,2,neutral,1,neutral
sub26,46,5595,1,2,Node9,picture6.jpg,2,neutral,1,neutral,2,neutral,1,neutral
sub26,47,3657,1,3,Node6,picture5.jpg,2,neutral,1,threat,1,neutral,2,neutral
sub26,48,3222,1,3,Node10,picture7.jpg,2,neutral,1,neutral,1,threat,2,neutral
sub27,1,7798,0,2,Node1,picture4.jpg,1,threat,1,threat,1,threat,2,threat
sub27,2,9406,0,2,Node4,picture3.jpg,1,neutral,2,neutral,1,neutral,1,threat
sub27,3,3298,1,2,Node6,picture10.jpg,2,neutral,1,threat,2,neutral,1,neutral
sub27,4,13649,0,2,Node1,picture4.jpg,1,threat,1,neutral,1,threat,2,neutral
sub27,5,3533,0,3,Node1,picture4.jpg,1,threat,1,threat,2,threat,1,threat
sub27,6,3939,0,2,Node4,picture3.jpg,1,neutral,1,threat,1,neutral,2,neutral
sub27,7,7831,0,1,Node8,picture1.jpg,2,neutral,2,neutral,1,neutral,2,threat
sub27,8,4722,0,1,Node4,picture3.jpg,1,neutral,1,neutral,1,threat,2,neutral
sub27,9,13674,0,1,Node1,picture4.jpg,1,threat,1,threat,1,neutral,2,neutral
sub27,10,29907,1,2,Node4,picture3.jpg,1,neutral,2,threat,1,neutral,2,neutral
sub27,11,4367,0,3,Node10,picture1.jpg,2,threat,1,threat,2,neutral,2,threat
sub27,12,3635,0,3,Node8,picture1.jpg,2,neutral,2,threat,1,neutral,2,neutral
sub27,13,3798,0,1,Node9,picture9.jpg,2,neutral,2,neutral,2,threat,1,threat
sub27,14,5182,0,1,Node4,picture3.jpg,1,neutral,1,neutral,1,threat,2,neutral
sub27,15,2454,0,3,Node9,picture9.jpg,2,neutral,2,threat,1,threat,2,neutral
sub27,16,4263,1,1,Node9,picture9.jpg,2,neutral,2,neutral,1,neutral,1,threat
sub27,17,2313,0,3,Node10,picture1.jpg,2,threat,2,neutral,1,threat,2,threat
sub27,18,5995,0,2,Node8,picture1.jpg,2,neutral,2,threat,2,neutral,1,neutral
sub27,19,2400,0,2,Node9,picture9.jpg,2,neutral,1,threat,2,neutral,2,threat
sub27,20,16849,0,1,Node8,picture1.jpg,2,neutral,2,neutral,2,threat,1,neutral
sub27,21,12342,0,1,Node1,picture4.jpg,1,threat,1,threat,1,threat,2,threat
sub27,22,3315,0,1,Node4,picture3.jpg,1,neutral,1,neutral,2,neutral,1,threat
sub27,23,2477,0,1,Node1,picture4.jpg,1,threat,1,threat,2,threat,1,threat
sub27,24,2826,0,2,Node4,picture3.jpg,1,neutral,2,neutral,1,neutral,1,threat
sub27,25,2588,0,2,Node9,picture9.jpg,2,neutral,2,threat,2,neutral,1,threat
sub27,26,3189,0,2,Node1,picture4.jpg,1,threat,2,neutral,1,threat,1,neutral
sub27,27,4461,0,1,Node1,picture4.jpg,1,threat,1,threat,1,neutral,2,neutral
sub27,28,2241,0,3,Node4,picture3.jpg,1,neutral,2,neutral,1,threat,1,neutral
sub27,29,4145,0,2,Node10,picture1.jpg,2,threat,1,neutral,2,threat,2,neutral
sub27,30,3447,0,3,Node1,picture4.jpg,1,threat,1,neutral,2,neutral,1,threat
sub27,31,2573,0,2,Node1,picture4.jpg,1,threat,2,threat,1,threat,1,threat
sub27,32,4690,0,1,Node1,picture4.jpg,1,threat,1,threat,2,neutral,1,neutral
sub27,33,2359,0,2,Node1,picture4.jpg,1,threat,2,neutral,1,threat,1,neutral
sub27,34,2992,0,3,Node1,picture4.jpg,1,threat,2,threat,1,threat,1,threat
sub27,35,2226,0,1,Node1,picture4.jpg,1,threat,1,threat,2,neutral,1,neutral
sub27,36,4508,0,3,Node9,picture9.jpg,2,neutral,1,threat,2,threat,2,neutral
sub27,37,4731,0,1,Node10,picture1.jpg,2,threat,2,threat,2,neutral,1,neutral
sub27,38,2410,0,2,Node10,picture1.jpg,2,threat,1,threat,2,threat,2,neutral
sub27,39,3518,0,3,Node10,picture1.jpg,2,threat,1,neutral,2,neutral,2,threat
sub27,40,2141,0,2,Node10,picture1.jpg,2,threat,1,neutral,2,threat,2,neutral
sub27,41,3090,0,3,Node10,picture1.jpg,2,threat,2,neutral,1,neutral,2,threat
sub27,42,2378,0,1,Node10,picture1.jpg,2,threat,2,threat,1,threat,2,neutral
sub27,43,1778,0,2,Node8,picture1.jpg,2,neutral,1,neutral,2,neutral,2,threat
sub27,44,3037,0,2,Node10,picture1.jpg,2,threat,2,neutral,2,threat,1,threat
sub27,45,3153,0,1,Node9,picture9.jpg,2,neutral,2,neutral,1,threat,2,threat
sub27,46,2617,0,1,Node10,picture1.jpg,2,threat,2,threat,2,neutral,1,threat
sub27,47,2777,0,1,Node8,picture1.jpg,2,neutral,2,neutral,2,threat,1,neutral
sub27,48,5304,0,3,Node1,picture4.jpg,1,threat,1,neutral,2,neutral,1,threat
sub28,1,4101,1,2,Node3,picture2.jpg,1,threat,2,neutral,1,threat,2,neutral
sub28,2,4735,1,3,Node1,picture1.jpg,1,threat,2,threat,2,neutral,1,threat
sub28,3,3695,1,1,Node8,picture9.jpg,2,neutral,2,neutral,1,neutral,1,neutral
sub28,4,4183,1,1,Node3,picture2.jpg,1,threat,1,threat,2,neutral,2,neutral
sub28,5,8916,1,1,Node6,picture2.jpg,2,neutral,2,neutral,1,threat,1,neutral
sub28,6,4783,1,3,Node8,picture9.jpg,2,neutral,1,neutral,1,neutral,2,neutral
sub28,7,4920,1,3,Node6,picture2.jpg,2,neutral,1,threat,1,neutral,2,neutral
sub28,8,4664,1,2,Node8,picture9.jpg,2,neutral,1,neutral,2,neutral,1,neutral
sub28,9,5656,1,2,Node9,picture4.jpg,2,threat,1,threat,2,threat,1,threat
sub28,10,7193,1,2,Node6,picture2.jpg,2,neutral,1,threat,2,neutral,1,neutral
sub28,11,4983,1,3,Node2,picture5.jpg,1,neutral,2,threat,2,neutral,1,neutral
sub28,12,3624,1,2,Node4,picture3.jpg,1,neutral,2,neutral,1,neutral,2,threat
sub28,13,4924,1,2,Node1,picture1.jpg,1,threat,2,threat,1,threat,2,neutral
sub28,14,5160,1,3,Node4,picture3.jpg,1,neutral,2,neutral,2,threat,1,neutral
sub28,15,8032,0,2,Node10,picture8.jpg,2,neutral,1,threat,2,neutral,2,threat
sub28,16,6808,1,1,Node8,picture9.jpg,2,neutral,2,neutral,1,neutral,1,neutral
sub28,17,3479,1,1,Node4,picture3.jpg,1,neutral,1,neutral,2,neutral,2,threat
sub28,18,9301,1,2,Node9,picture4.jpg,2,threat,1,threat,2,threat,1,threat
sub28,19,4026,1,1,Node3,picture2.jpg,1,threat,1,threat,2,neutral,2,neutral
sub28,20,3743,1,2,Node6,picture2.jpg,2,neutral,1,neutral,2,neutral,1,threat
sub28,21,6064,1,2,Node2,picture5.jpg,1,neutral,2,neutral,1,neutral,2,threat
sub28,22,3319,1,2,Node3,picture2.jpg,1,threat,2,neutral,1,threat,2,neutral
sub28,23,5064,1,2,Node8,picture9.jpg,2,neutral,1,neutral,2,neutral,1,neutral
sub28,24,5647,1,1,Node9,picture4.jpg,2,threat,2,threat,1,threat,1,threat
sub28,25,6883,1,3,Node10,picture8.jpg,2,neutral,1,neutral,1,neutral,2,neutral
sub28,26,4524,1,1,Node2,picture5.jpg,1,neutral,1,neutral,2,neutral,2,threat
sub28,27,6423,1,1,Node9,picture4.jpg,2,threat,2,threat,1,threat,1,threat
sub28,28,7105,1,1,Node10,picture8.jpg,2,neutral,2,neutral,1,neutral,1,neutral
sub28,29,4423,1,2,Node4,picture3.jpg,1,neutral,2,threat,1,neutral,2,neutral
sub28,30,3705,1,3,Node9,picture4.jpg,2,threat,1,threat,1,threat,2,threat
sub28,31,3752,1,1,Node6,picture2.jpg,2,neutral,2,neutral,1,neutral,1,threat
sub28,32,3832,1,1,Node1,picture1.jpg,1,threat,1,threat,2,threat,2,neutral
sub28,33,13352,1,2,Node10,picture8.jpg,2,neutral,1,neutral,2,neutral,1,neutral
