subject,trialCount,RT,acc,partResp,chosenNode,chosenImageFile,chosenCommunityNumber,chosenThreatStatus,option1CommunityNumber,option1ThreatStatus,option2CommunityNumber,option2ThreatStatus,option3CommunityNumber,option3ThreatStatus,combined_comnums,target_node,target_threat,nontarget_comb,nontarget_threat
sub1,1,3393,1,1,Node10,picture4.jpg,2,threat,2,threat,1,neutral,1,threat,211,,threat,neutralthreat,has_threat
sub1,2,4592,1,3,Node2,picture7.jpg,1,neutral,2,neutral,2,neutral,1,neutral,221,,neutral,neutralneutral,no_threat
sub1,3,2220,1,3,Node8,picture5.jpg,2,neutral,1,neutral,1,threat,2,neutral,112,,neutral,neutralthreat,has_threat
sub1,4,3639,1,3,Node10,picture4.jpg,2,threat,1,threat,1,neutral,2,threat,112,,threat,threatneutral,has_threat
sub1,5,7169,1,2,Node3,picture3.jpg,1,neutral,2,neutral,1,neutral,2,neutral,212,,neutral,neutralneutral,no_threat
sub1,6,3349,1,2,Node10,picture4.jpg,2,threat,1,neutral,2,threat,1,threat,121,,threat,neutralthreat,has_threat
sub1,7,7456,1,2,Node8,picture5.jpg,2,neutral,1,neutral,2,neutral,1,threat,121,,neutral,neutralthreat,has_threat
sub1,8,11239,1,3,Node4,picture3.jpg,1,threat,2,neutral,2,neutral,1,threat,221,,threat,neutralneutral,no_threat
sub1,9,8439,1,2,Node3,picture3.jpg,1,neutral,2,neutral,1,neutral,2,neutral,212,,neutral,neutralneutral,no_threat
sub1,10,4343,1,2,Node10,picture4.jpg,2,threat,1,threat,2,threat,1,neutral,121,,threat,threatneutral,has_threat
sub1,11,9343,1,2,Node9,picture4.jpg,2,neutral,1,threat,2,neutral,1,neutral,121,,neutral,threatneutral,has_threat
sub1,12,4680,1,3,Node6,picture9.jpg,2,neutral,1,threat,1,neutral,2,neutral,112,,neutral,threatneutral,has_threat
sub1,13,2212,0,2,Node9,picture4.jpg,2,neutral,2,neutral,2,neutral,1,threat,221,,threat,neutralneutral,no_threat
sub1,14,5226,1,3,Node3,picture3.jpg,1,neutral,2,neutral,2,neutral,1,neutral,221,,neutral,neutralneutral,no_threat
sub1,15,1983,1,2,Node6,picture9.jpg,2,neutral,1,threat,2,neutral,1,neutral,121,,neutral,threatneutral,has_threat
sub1,16,2815,1,3,Node1,picture2.jpg,1,threat,2,neutral,2,neutral,1,threat,221,,threat,neutralneutral,no_threat
sub1,17,4593,1,3,Node10,picture4.jpg,2,threat,1,neutral,1,threat,2,threat,112,,threat,neutralthreat,has_threat
sub1,18,2351,1,2,Node2,picture7.jpg,1,neutral,2,neutral,1,neutral,2,neutral,212,,neutral,neutralneutral,no_threat
sub1,19,3408,1,3,Node9,picture4.jpg,2,neutral,1,threat,1,neutral,2,neutral,112,,neutral,threatneutral,has_threat
sub1,20,2471,1,1,Node10,picture4.jpg,2,threat,2,threat,1,threat,1,neutral,211,,threat,threatneutral,has_threat
sub1,21,4521,1,3,Node9,picture4.jpg,2,neutral,1,neutral,1,threat,2,neutral,112,,neutral,neutralthreat,has_threat
sub1,22,13968,1,1,Node6,picture9.jpg,2,neutral,2,neutral,1,threat,1,neutral,211,,neutral,threatneutral,has_threat
sub1,23,3119,1,2,Node8,picture5.jpg,2,neutral,1,threat,2,neutral,1,neutral,121,,neutral,threatneutral,has_threat
sub1,24,7576,1,2,Node4,picture3.jpg,1,threat,2,neutral,1,threat,2,neutral,212,,threat,neutralneutral,no_threat
sub1,25,4416,1,3,Node3,picture3.jpg,1,neutral,2,neutral,2,neutral,1,neutral,221,,neutral,neutralneutral,no_threat
sub1,26,6126,1,1,Node4,picture3.jpg,1,threat,1,threat,2,neutral,2,neutral,122,,threat,neutralneutral,no_threat
sub1,27,4448,1,1,Node8,picture5.jpg,2,neutral,2,neutral,1,threat,1,neutral,211,,neutral,threatneutral,has_threat
sub1,28,5448,1,2,Node4,picture3.jpg,1,threat,2,neutral,1,threat,2,neutral,212,,threat,neutralneutral,no_threat
sub1,29,2073,1,1,Node3,picture3.jpg,1,neutral,1,neutral,2,neutral,2,neutral,122,,neutral,neutralneutral,no_threat
sub1,30,2967,1,2,Node1,picture2.jpg,1,threat,2,neutral,1,threat,2,neutral,212,,threat,neutralneutral,no_threat
sub1,31,1744,1,1,Node3,picture3.jpg,1,neutral,1,neutral,2,neutral,2,neutral,122,,neutral,neutralneutral,no_threat
sub1,32,2456,1,2,Node1,picture2.jpg,1,threat,2,neutral,1,threat,2,neutral,212,,threat,neutralneutral,no_threat
sub1,33,8104,1,3,Node2,picture7.jpg,1,neutral,2,neutral,2,neutral,1,neutral,221,,neutral,neutralneutral,no_threat
sub1,34,15024,1,1,Node8,picture5.jpg,2,neutral,2,neutral,1,neutral,1,threat,211,,neutral,neutralthreat,has_threat
sub1,35,2591,1,1,Node4,picture3.jpg,1,threat,1,threat,2,neutral,2,neutral,122,,threat,neutralneutral,no_threat
sub1,36,4592,0,2,Node9,picture4.jpg,2,neutral,1,threat,2,neutral,2,neutral,122,,threat,neutralneutral,no_threat
sub1,37,6671,1,3,Node6,picture9.jpg,2,neutral,1,neutral,1,threat,2,neutral,112,,neutral,neutralthreat,has_threat
sub1,38,5081,1,2,Node9,picture4.jpg,2,neutral,1,neutral,2,neutral,1,threat,121,,neutral,neutralthreat,has_threat
sub1,39,4439,1,1,Node2,picture7.jpg,1,neutral,1,neutral,2,neutral,2,neutral,122,,neutral,neutralneutral,no_threat
sub1,40,3368,0,3,Node9,picture4.jpg,2,neutral,1,threat,2,neutral,2,neutral,122,,threat,neutralneutral,no_threat
sub1,41,3305,1,1,Node6,picture9.jpg,2,neutral,2,neutral,1,neutral,1,threat,211,,neutral,neutralthreat,has_threat
sub1,42,3799,1,3,Node8,picture5.jpg,2,neutral,1,threat,1,neutral,2,neutral,112,,neutral,threatneutral,has_threat
sub1,43,3561,1,2,Node6,picture9.jpg,2,neutral,1,neutral,2,neutral,1,threat,121,,neutral,neutralthreat,has_threat
sub1,44,4304,1,1,Node9,picture4.jpg,2,neutral,2,neutral,1,threat,1,neutral,211,,neutral,threatneutral,has_threat
sub1,45,2004,1,1,Node2,picture7.jpg,1,neutral,1,neutral,2,neutral,2,neutral,122,,neutral,neutralneutral,no_threat
sub1,46,3087,1,3,Node4,picture3.jpg,1,threat,2,neutral,2,neutral,1,threat,221,,threat,neutralneutral,no_threat
sub1,47,2345,1,1,Node9,picture4.jpg,2,neutral,2,neutral,1,neutral,1,threat,211,,neutral,neutralthreat,has_threat
sub1,48,1710,1,2,Node2,picture7.jpg,1,neutral,2,neutral,1,neutral,2,neutral,212,,neutral,neutralneutral,no_threat
sub2,1,3399,1,2,Node2,picture4.jpg,1,neutral,2,neutral,1,neutral,2,threat,212,,neutral,neutralthreat,has_threat
sub2,2,6674,1,1,Node1,picture10.jpg,1,neutral,1,neutral,2,threat,2,neutral,122,,neutral,threatneutral,has_threat
sub2,3,4076,1,3,Node8,picture1.jpg,2,threat,1,threat,1,threat,2,threat,112,,threat,threatthreat,has_threat
sub2,4,7224,0,3,Node4,picture3.jpg,1,threat,1,threat,2,neutral,1,threat,121,,neutral,threatthreat,has_threat
sub2,5,5289,1,1,Node8,picture1.jpg,2,threat,2,threat,1,threat,1,threat,211,,threat,threatthreat,has_threat
sub2,6,7825,1,1,Node10,picture4.jpg,2,threat,2,threat,1,threat,1,neutral,211,,threat,threatneutral,has_threat
sub2,7,8948,1,1,Node2,picture4.jpg,1,neutral,1,neutral,2,neutral,2,threat,122,,neutral,neutralthreat,has_threat
sub2,8,4987,1,1,Node1,picture10.jpg,1,neutral,1,neutral,2,neutral,2,threat,122,,neutral,neutralthreat,has_threat
sub2,9,4632,1,3,Node3,picture2.jpg,1,threat,2,neutral,2,threat,1,threat,221,,threat,neutralthreat,has_threat
sub2,10,3137,1,1,Node6,picture3.jpg,2,neutral,2,neutral,1,neutral,1,neutral,211,,neutral,neutralneutral,no_threat
sub2,11,11033,1,1,Node8,picture1.jpg,2,threat,2,threat,1,threat,1,threat,211,,threat,threatthreat,has_threat
sub2,12,9288,1,1,Node10,picture4.jpg,2,threat,2,threat,1,neutral,1,threat,211,,threat,neutralthreat,has_threat
sub2,13,10951,0,3,Node8,picture1.jpg,2,threat,2,neutral,1,threat,2,threat,212,,threat,neutralthreat,has_threat
sub2,14,10859,1,3,Node3,picture2.jpg,1,threat,2,threat,2,neutral,1,threat,221,,threat,threatneutral,has_threat
sub2,15,8021,1,3,Node2,picture4.jpg,1,neutral,2,neutral,2,threat,1,neutral,221,,neutral,neutralthreat,has_threat
sub2,16,13334,1,2,Node4,picture3.jpg,1,threat,2,threat,1,threat,2,neutral,212,,threat,threatneutral,has_threat
sub2,17,8462,1,3,Node10,picture4.jpg,2,threat,1,threat,1,neutral,2,threat,112,,threat,threatneutral,has_threat
sub2,18,7161,1,1,Node9,picture1.jpg,2,neutral,2,neutral,1,threat,1,threat,211,,neutral,threatthreat,has_threat
sub2,19,6308,1,3,Node4,picture3.jpg,1,threat,2,threat,2,neutral,1,threat,221,,threat,threatneutral,has_threat
sub2,20,4229,1,3,Node1,picture10.jpg,1,neutral,2,neutral,2,threat,1,neutral,221,,neutral,neutralthreat,has_threat
sub2,21,15681,1,2,Node3,picture2.jpg,1,threat,2,neutral,1,threat,2,threat,212,,threat,neutralthreat,has_threat
sub2,22,3353,1,3,Node2,picture4.jpg,1,neutral,2,threat,2,neutral,1,neutral,221,,neutral,threatneutral,has_threat
sub2,23,3461,1,1,Node4,picture3.jpg,1,threat,1,threat,2,neutral,2,threat,122,,threat,neutralthreat,has_threat
sub2,24,4114,1,2,Node10,picture4.jpg,2,threat,1,neutral,2,threat,1,threat,121,,threat,neutralthreat,has_threat
sub2,25,2968,1,3,Node6,picture3.jpg,2,neutral,1,neutral,1,neutral,2,neutral,112,,neutral,neutralneutral,no_threat
sub2,26,6354,1,1,Node2,picture4.jpg,1,neutral,1,neutral,2,threat,2,neutral,122,,neutral,threatneutral,has_threat
sub2,27,5623,0,1,Node3,picture2.jpg,1,threat,1,threat,1,threat,2,threat,112,,threat,threatthreat,has_threat
sub2,28,3679,1,3,Node9,picture1.jpg,2,neutral,1,threat,1,threat,2,neutral,112,,neutral,threatthreat,has_threat
sub2,29,4528,1,3,Node6,picture3.jpg,2,neutral,1,neutral,1,neutral,2,neutral,112,,neutral,neutralneutral,no_threat
sub2,30,4834,1,2,Node2,picture4.jpg,1,neutral,2,threat,1,neutral,2,neutral,212,,neutral,threatneutral,has_threat
sub2,31,6993,1,1,Node9,picture1.jpg,2,neutral,2,neutral,1,threat,1,threat,211,,neutral,threatthreat,has_threat
sub2,32,7248,1,3,Node1,picture10.jpg,1,neutral,2,threat,2,neutral,1,neutral,221,,neutral,threatneutral,has_threat
sub2,33,11721,1,2,Node10,picture4.jpg,2,threat,1,threat,2,threat,1,neutral,121,,threat,threatneutral,has_threat
sub2,34,4913,1,2,Node9,picture1.jpg,2,neutral,1,threat,2,neutral,1,threat,121,,neutral,threatthreat,has_threat
sub2,35,4482,1,2,Node6,picture3.jpg,2,neutral,1,neutral,2,neutral,1,neutral,121,,neutral,neutralneutral,no_threat
sub2,36,3593,1,2,Node8,picture1.jpg,2,threat,1,threat,2,threat,1,threat,121,,threat,threatthreat,has_threat
sub2,37,2227,1,3,Node9,picture1.jpg,2,neutral,1,threat,1,threat,2,neutral,112,,neutral,threatthreat,has_threat
sub2,38,4011,1,1,Node4,picture3.jpg,1,threat,1,threat,2,threat,2,neutral,122,,threat,threatneutral,has_threat
sub2,39,9973,1,2,Node1,picture10.jpg,1,neutral,2,neutral,1,neutral,2,threat,212,,neutral,neutralthreat,has_threat
sub2,40,6943,1,1,Node3,picture2.jpg,1,threat,1,threat,2,neutral,2,threat,122,,threat,neutralthreat,has_threat
sub2,41,13253,1,1,Node6,picture3.jpg,2,neutral,2,neutral,1,neutral,1,neutral,211,,neutral,neutralneutral,no_threat
sub2,42,6242,0,3,Node4,picture3.jpg,1,threat,1,threat,2,threat,1,threat,121,,threat,threatthreat,has_threat
sub2,43,5209,1,3,Node10,picture4.jpg,2,threat,1,neutral,1,threat,2,threat,112,,threat,neutralthreat,has_threat
sub2,44,7813,1,1,Node3,picture2.jpg,1,threat,1,threat,2,threat,2,neutral,122,,threat,threatneutral,has_threat
sub2,45,5060,1,2,Node6,picture3.jpg,2,neutral,1,neutral,2,neutral,1,neutral,121,,neutral,neutralneutral,no_threat
sub2,46,8892,0,1,Node8,picture1.jpg,2,threat,2,threat,1,threat,2,neutral,212,,threat,threatneutral,has_threat
sub2,47,4582,1,3,Node4,picture3.jpg,1,threat,2,neutral,2,threat,1,threat,221,,threat,neutralthreat,has_threat
sub2,48,10495,0,1,Node10,picture4.jpg,2,threat,2,threat,1,neutral,2,neutral,212,,neutral,threatneutral,has_threat
sub4,1,4151,1,2,Node8,picture6.jpg,2,neutral,1,neutral,2,neutral,1,neutral,121,,neutral,neutralneutral,no_threat
sub4,2,4673,1,2,Node9,picture9.jpg,2,neutral,1,neutral,2,neutral,1,neutral,121,,neutral,neutralneutral,no_threat
sub4,3,7100,0,3,Node1,picture3.jpg,1,threat,2,threat,1,neutral,1,threat,211,,threat,neutralthreat,has_threat
sub4,4,13440,1,2,Node4,picture1.jpg,1,neutral,2,neutral,1,neutral,2,neutral,212,,neutral,neutralneutral,no_threat
sub4,5,4634,1,3,Node3,picture5.jpg,1,neutral,2,threat,2,neutral,1,neutral,221,,neutral,threatneutral,has_threat
sub4,6,11818,1,1,Node2,picture2.jpg,1,threat,1,threat,2,threat,2,neutral,122,,threat,threatneutral,has_threat
sub4,7,5802,1,1,Node8,picture6.jpg,2,neutral,2,neutral,1,neutral,1,neutral,211,,neutral,neutralneutral,no_threat
sub4,8,5354,1,3,Node2,picture2.jpg,1,threat,2,neutral,2,threat,1,threat,221,,threat,neutralthreat,has_threat
sub4,9,2856,0,1,Node6,picture7.jpg,2,neutral,2,neutral,1,neutral,2,neutral,212,,neutral,neutralneutral,no_threat
sub4,10,11242,1,3,Node3,picture5.jpg,1,neutral,2,neutral,2,threat,1,neutral,221,,neutral,neutralthreat,has_threat
sub4,11,8765,1,1,Node4,picture1.jpg,1,neutral,1,neutral,2,neutral,2,neutral,122,,neutral,neutralneutral,no_threat
sub4,12,7372,1,2,Node3,picture5.jpg,1,neutral,2,neutral,1,neutral,2,threat,212,,neutral,neutralthreat,has_threat
sub4,13,5701,1,1,Node1,picture3.jpg,1,threat,1,threat,2,neutral,2,neutral,122,,threat,neutralneutral,no_threat
sub4,14,6816,1,1,Node6,picture7.jpg,2,neutral,2,neutral,1,neutral,1,neutral,211,,neutral,neutralneutral,no_threat
sub4,15,7702,1,1,Node3,picture5.jpg,1,neutral,1,neutral,2,neutral,2,threat,122,,neutral,neutralthreat,has_threat
sub4,16,3554,1,3,Node2,picture2.jpg,1,threat,2,threat,2,neutral,1,threat,221,,threat,threatneutral,has_threat
sub4,17,5781,1,2,Node1,picture3.jpg,1,threat,2,neutral,1,threat,2,neutral,212,,threat,neutralneutral,no_threat
sub4,18,19803,1,1,Node2,picture2.jpg,1,threat,1,threat,2,neutral,2,threat,122,,threat,neutralthreat,has_threat
sub4,19,3370,1,3,Node9,picture9.jpg,2,neutral,1,neutral,1,neutral,2,neutral,112,,neutral,neutralneutral,no_threat
sub4,20,5661,1,2,Node10,picture1.jpg,2,threat,1,threat,2,threat,1,neutral,121,,threat,threatneutral,has_threat
sub4,21,4968,1,3,Node4,picture1.jpg,1,neutral,2,neutral,2,neutral,1,neutral,221,,neutral,neutralneutral,no_threat
sub4,22,6734,1,1,Node3,picture5.jpg,1,neutral,1,neutral,2,threat,2,neutral,122,,neutral,threatneutral,has_threat
sub4,23,7899,1,3,Node4,picture1.jpg,1,neutral,2,neutral,2,neutral,1,neutral,221,,neutral,neutralneutral,no_threat
sub4,24,3292,1,3,Node1,picture3.jpg,1,threat,2,neutral,2,neutral,1,threat,221,,threat,neutralneutral,no_threat
sub4,25,5792,1,2,Node3,picture5.jpg,1,neutral,2,threat,1,neutral,2,neutral,212,,neutral,threatneutral,has_threat
sub4,26,4559,1,2,Node1,picture3.jpg,1,threat,2,neutral,1,threat,2,neutral,212,,threat,neutralneutral,no_threat
sub4,27,5254,1,1,Node9,picture9.jpg,2,neutral,2,neutral,1,neutral,1,neutral,211,,neutral,neutralneutral,no_threat
sub4,28,6310,1,2,Node10,picture1.jpg,2,threat,1,neutral,2,threat,1,threat,121,,threat,neutralthreat,has_threat
sub4,29,7788,1,3,Node6,picture7.jpg,2,neutral,1,neutral,1,neutral,2,neutral,112,,neutral,neutralneutral,no_threat
sub4,30,6723,1,3,Node10,picture1.jpg,2,threat,1,neutral,1,threat,2,threat,112,,threat,neutralthreat,has_threat
sub4,31,4444,1,2,Node9,picture9.jpg,2,neutral,1,neutral,2,neutral,1,neutral,121,,neutral,neutralneutral,no_threat
sub4,32,2938,1,3,Node10,picture1.jpg,2,threat,1,threat,1,neutral,2,threat,112,,threat,threatneutral,has_threat
sub4,33,7210,1,2,Node8,picture6.jpg,2,neutral,1,neutral,2,neutral,1,neutral,121,,neutral,neutralneutral,no_threat
sub4,34,2990,0,2,Node6,picture7.jpg,2,neutral,1,neutral,2,neutral,2,neutral,122,,neutral,neutralneutral,no_threat
sub4,35,4783,1,1,Node1,picture3.jpg,1,threat,1,threat,2,neutral,2,neutral,122,,threat,neutralneutral,no_threat
sub4,36,6532,0,1,Node10,picture1.jpg,2,threat,2,threat,1,threat,2,neutral,212,,threat,threatneutral,has_threat
sub4,37,7318,1,1,Node8,picture6.jpg,2,neutral,2,neutral,1,neutral,1,neutral,211,,neutral,neutralneutral,no_threat
sub4,38,4292,1,1,Node6,picture7.jpg,2,neutral,2,neutral,1,neutral,1,neutral,211,,neutral,neutralneutral,no_threat
sub4,39,3018,1,2,Node2,picture2.jpg,1,threat,2,neutral,1,threat,2,threat,212,,threat,neutralthreat,has_threat
sub4,40,3127,1,1,Node10,picture1.jpg,2,threat,2,threat,1,threat,1,neutral,211,,threat,threatneutral,has_threat
sub4,41,4177,1,3,Node8,picture6.jpg,2,neutral,1,neutral,1,neutral,2,neutral,112,,neutral,neutralneutral,no_threat
sub4,42,11034,1,3,Node9,picture9.jpg,2,neutral,1,neutral,1,neutral,2,neutral,112,,neutral,neutralneutral,no_threat
sub4,43,3215,1,2,Node6,picture7.jpg,2,neutral,1,neutral,2,neutral,1,neutral,121,,neutral,neutralneutral,no_threat
sub4,44,10144,1,1,Node9,picture9.jpg,2,neutral,2,neutral,1,neutral,1,neutral,211,,neutral,neutralneutral,no_threat
sub4,45,4067,1,3,Node8,picture6.jpg,2,neutral,1,neutral,1,neutral,2,neutral,112,,neutral,neutralneutral,no_threat
sub4,46,3635,1,3,Node6,picture7.jpg,2,neutral,1,neutral,1,neutral,2,neutral,112,,neutral,neutralneutral,no_threat
sub4,47,3092,1,3,Node1,picture3.jpg,1,threat,2,neutral,2,neutral,1,threat,221,,threat,neutralneutral,no_threat
sub4,48,7230,1,2,Node6,picture7.jpg,2,neutral,1,neutral,2,neutral,1,neutral,121,,neutral,neutralneutral,no_threat
sub5,1,4624,1,3,Node2,picture10.jpg,1,neutral,2,threat,2,neutral,1,neutral,221,,neutral,threatneutral,has_threat
sub5,2,2209,1,1,Node8,picture1.jpg,2,neutral,2,neutral,1,threat,1,threat,211,,neutral,threatthreat,has_threat
sub5,3,2451,1,1,Node10,picture4.jpg,2,threat,2,threat,1,neutral,1,neutral,211,,threat,neutralneutral,no_threat
sub5,4,2612,1,3,Node6,picture8.jpg,2,neutral,1,threat,1,neutral,2,neutral,112,,neutral,threatneutral,has_threat
sub5,5,2155,1,3,Node9,picture1.jpg,2,threat,1,neutral,1,threat,2,threat,112,,threat,neutralthreat,has_threat
sub5,6,2523,1,1,Node6,picture8.jpg,2,neutral,2,neutral,1,neutral,1,threat,211,,neutral,neutralthreat,has_threat
sub5,7,1901,1,2,Node9,picture1.jpg,2,threat,1,neutral,2,threat,1,threat,121,,threat,neutralthreat,has_threat
sub5,8,2775,1,1,Node2,picture10.jpg,1,neutral,1,neutral,2,threat,2,neutral,122,,neutral,threatneutral,has_threat
sub5,9,2230,1,1,Node4,picture3.jpg,1,threat,1,threat,2,neutral,2,threat,122,,threat,neutralthreat,has_threat
sub5,10,1898,1,3,Node1,picture2.jpg,1,threat,2,neutral,2,threat,1,threat,221,,threat,neutralthreat,has_threat
sub5,11,3126,1,2,Node2,picture10.jpg,1,neutral,2,neutral,1,neutral,2,threat,212,,neutral,neutralthreat,has_threat
sub5,12,2362,1,1,Node4,picture3.jpg,1,threat,1,threat,2,threat,2,neutral,122,,threat,threatneutral,has_threat
sub5,13,3463,1,2,Node1,picture2.jpg,1,threat,2,neutral,1,threat,2,threat,212,,threat,neutralthreat,has_threat
sub5,14,5209,1,1,Node9,picture1.jpg,2,threat,2,threat,1,neutral,1,threat,211,,threat,neutralthreat,has_threat
sub5,15,2841,1,2,Node8,picture1.jpg,2,neutral,1,threat,2,neutral,1,threat,121,,neutral,threatthreat,has_threat
sub5,16,2162,1,1,Node1,picture2.jpg,1,threat,1,threat,2,neutral,2,threat,122,,threat,neutralthreat,has_threat
sub5,17,2928,1,2,Node9,picture1.jpg,2,threat,1,threat,2,threat,1,neutral,121,,threat,threatneutral,has_threat
sub5,18,2921,1,2,Node6,picture8.jpg,2,neutral,1,neutral,2,neutral,1,threat,121,,neutral,neutralthreat,has_threat
sub5,19,2094,1,3,Node10,picture4.jpg,2,threat,1,neutral,1,neutral,2,threat,112,,threat,neutralneutral,no_threat
sub5,20,3324,1,2,Node4,picture3.jpg,1,threat,2,neutral,1,threat,2,threat,212,,threat,neutralthreat,has_threat
sub5,21,3114,1,3,Node10,picture4.jpg,2,threat,1,neutral,1,neutral,2,threat,112,,threat,neutralneutral,no_threat
sub5,22,2239,1,1,Node6,picture8.jpg,2,neutral,2,neutral,1,threat,1,neutral,211,,neutral,threatneutral,has_threat
sub5,23,2662,1,1,Node8,picture1.jpg,2,neutral,2,neutral,1,threat,1,threat,211,,neutral,threatthreat,has_threat
sub5,24,3360,1,1,Node1,picture2.jpg,1,threat,1,threat,2,threat,2,neutral,122,,threat,threatneutral,has_threat
sub5,25,1979,1,3,Node2,picture10.jpg,1,neutral,2,neutral,2,threat,1,neutral,221,,neutral,neutralthreat,has_threat
sub5,26,4090,1,3,Node8,picture1.jpg,2,neutral,1,threat,1,threat,2,neutral,112,,neutral,threatthreat,has_threat
sub5,27,5351,1,1,Node3,picture7.jpg,1,neutral,1,neutral,2,threat,2,neutral,122,,neutral,threatneutral,has_threat
sub5,28,2768,1,1,Node2,picture10.jpg,1,neutral,1,neutral,2,neutral,2,threat,122,,neutral,neutralthreat,has_threat
sub5,29,3415,1,1,Node3,picture7.jpg,1,neutral,1,neutral,2,neutral,2,threat,122,,neutral,neutralthreat,has_threat
sub5,30,2549,1,2,Node4,picture3.jpg,1,threat,2,threat,1,threat,2,neutral,212,,threat,threatneutral,has_threat
sub5,31,4048,1,2,Node2,picture10.jpg,1,neutral,2,threat,1,neutral,2,neutral,212,,neutral,threatneutral,has_threat
sub5,32,4425,1,3,Node3,picture7.jpg,1,neutral,2,threat,2,neutral,1,neutral,221,,neutral,threatneutral,has_threat
sub5,33,5293,1,2,Node8,picture1.jpg,2,neutral,1,threat,2,neutral,1,threat,121,,neutral,threatthreat,has_threat
sub5,34,3214,1,2,Node3,picture7.jpg,1,neutral,2,threat,1,neutral,2,neutral,212,,neutral,threatneutral,has_threat
sub5,35,4535,1,3,Node8,picture1.jpg,2,neutral,1,threat,1,threat,2,neutral,112,,neutral,threatthreat,has_threat
sub5,36,6480,1,3,Node4,picture3.jpg,1,threat,2,neutral,2,threat,1,threat,221,,threat,neutralthreat,has_threat
sub5,37,3824,1,2,Node6,picture8.jpg,2,neutral,1,threat,2,neutral,1,neutral,121,,neutral,threatneutral,has_threat
sub5,38,4147,1,3,Node9,picture1.jpg,2,threat,1,threat,1,neutral,2,threat,112,,threat,threatneutral,has_threat
sub5,39,6500,1,3,Node6,picture8.jpg,2,neutral,1,neutral,1,threat,2,neutral,112,,neutral,neutralthreat,has_threat
sub5,40,2624,1,2,Node10,picture4.jpg,2,threat,1,neutral,2,threat,1,neutral,121,,threat,neutralneutral,no_threat
sub5,41,4707,1,2,Node3,picture7.jpg,1,neutral,2,neutral,1,neutral,2,threat,212,,neutral,neutralthreat,has_threat
sub5,42,9026,1,2,Node1,picture2.jpg,1,threat,2,threat,1,threat,2,neutral,212,,threat,threatneutral,has_threat
sub5,43,5442,1,2,Node10,picture4.jpg,2,threat,1,neutral,2,threat,1,neutral,121,,threat,neutralneutral,no_threat
sub5,44,4603,1,3,Node1,picture2.jpg,1,threat,2,threat,2,neutral,1,threat,221,,threat,threatneutral,has_threat
sub5,45,2974,0,1,Node6,picture8.jpg,2,neutral,2,neutral,2,threat,1,neutral,221,,neutral,neutralthreat,has_threat
sub5,46,3684,1,3,Node4,picture3.jpg,1,threat,2,threat,2,neutral,1,threat,221,,threat,threatneutral,has_threat
sub5,47,2074,1,1,Node10,picture4.jpg,2,threat,2,threat,1,neutral,1,neutral,211,,threat,neutralneutral,no_threat
sub5,48,3683,1,1,Node9,picture1.jpg,2,threat,2,threat,1,threat,1,neutral,211,,threat,threatneutral,has_threat
sub6,1,2567,1,3,Node10,picture4.jpg,2,neutral,1,threat,1,neutral,2,neutral,112,,neutral,threatneutral,has_threat
sub6,2,4574,1,2,Node1,picture2.jpg,1,threat,2,neutral,1,threat,2,threat,212,,threat,neutralthreat,has_threat
sub6,3,2150,1,1,Node3,picture1.jpg,1,threat,1,threat,2,neutral,2,neutral,122,,threat,neutralneutral,no_threat
sub6,4,3137,1,3,Node1,picture2.jpg,1,threat,2,neutral,2,threat,1,threat,221,,threat,neutralthreat,has_threat
sub6,5,2068,1,3,Node3,picture1.jpg,1,threat,2,neutral,2,neutral,1,threat,221,,threat,neutralneutral,no_threat
sub6,6,2693,1,1,Node1,picture2.jpg,1,threat,1,threat,2,threat,2,neutral,122,,threat,threatneutral,has_threat
sub6,7,2108,1,1,Node10,picture4.jpg,2,neutral,2,neutral,1,neutral,1,threat,211,,neutral,neutralthreat,has_threat
sub6,8,2987,1,3,Node6,picture1.jpg,2,neutral,1,neutral,1,threat,2,neutral,112,,neutral,neutralthreat,has_threat
sub6,9,5665,1,1,Node8,picture9.jpg,2,neutral,2,neutral,1,neutral,1,threat,211,,neutral,neutralthreat,has_threat
sub6,10,2910,1,3,Node4,picture7.jpg,1,neutral,2,neutral,2,neutral,1,neutral,221,,neutral,neutralneutral,no_threat
sub6,11,2184,1,1,Node2,picture3.jpg,1,neutral,1,neutral,2,neutral,2,neutral,122,,neutral,neutralneutral,no_threat
sub6,12,2270,1,3,Node8,picture9.jpg,2,neutral,1,threat,1,neutral,2,neutral,112,,neutral,threatneutral,has_threat
sub6,13,3863,1,2,Node10,picture4.jpg,2,neutral,1,neutral,2,neutral,1,threat,121,,neutral,neutralthreat,has_threat
sub6,14,4993,1,1,Node6,picture1.jpg,2,neutral,2,neutral,1,threat,1,neutral,211,,neutral,threatneutral,has_threat
sub6,15,6150,1,1,Node1,picture2.jpg,1,threat,1,threat,2,neutral,2,threat,122,,threat,neutralthreat,has_threat
sub6,16,4617,1,2,Node6,picture1.jpg,2,neutral,1,threat,2,neutral,1,neutral,121,,neutral,threatneutral,has_threat
sub6,17,4644,1,3,Node8,picture9.jpg,2,neutral,1,neutral,1,threat,2,neutral,112,,neutral,neutralthreat,has_threat
sub6,18,2510,1,2,Node4,picture7.jpg,1,neutral,2,neutral,1,neutral,2,neutral,212,,neutral,neutralneutral,no_threat
sub6,19,2946,1,3,Node1,picture2.jpg,1,threat,2,threat,2,neutral,1,threat,221,,threat,threatneutral,has_threat
sub6,20,4962,1,2,Node9,picture4.jpg,2,threat,1,threat,2,threat,1,neutral,121,,threat,threatneutral,has_threat
sub6,21,3443,1,2,Node3,picture1.jpg,1,threat,2,neutral,1,threat,2,neutral,212,,threat,neutralneutral,no_threat
sub6,22,3181,1,2,Node2,picture3.jpg,1,neutral,2,neutral,1,neutral,2,neutral,212,,neutral,neutralneutral,no_threat
sub6,23,2182,1,2,Node9,picture4.jpg,2,threat,1,neutral,2,threat,1,threat,121,,threat,neutralthreat,has_threat
sub6,24,4936,1,1,Node10,picture4.jpg,2,neutral,2,neutral,1,threat,1,neutral,211,,neutral,threatneutral,has_threat
sub6,25,3039,1,2,Node8,picture9.jpg,2,neutral,1,neutral,2,neutral,1,threat,121,,neutral,neutralthreat,has_threat
sub6,26,4636,1,2,Node4,picture7.jpg,1,neutral,2,neutral,1,neutral,2,neutral,212,,neutral,neutralneutral,no_threat
sub6,27,3999,1,3,Node3,picture1.jpg,1,threat,2,neutral,2,neutral,1,threat,221,,threat,neutralneutral,no_threat
sub6,28,2436,1,2,Node1,picture2.jpg,1,threat,2,threat,1,threat,2,neutral,212,,threat,threatneutral,has_threat
sub6,29,6701,1,2,Node6,picture1.jpg,2,neutral,1,neutral,2,neutral,1,threat,121,,neutral,neutralthreat,has_threat
sub6,30,4455,1,1,Node8,picture9.jpg,2,neutral,2,neutral,1,threat,1,neutral,211,,neutral,threatneutral,has_threat
sub6,31,2516,1,1,Node9,picture4.jpg,2,threat,2,threat,1,neutral,1,threat,211,,threat,neutralthreat,has_threat
sub6,32,2433,1,2,Node2,picture3.jpg,1,neutral,2,neutral,1,neutral,2,neutral,212,,neutral,neutralneutral,no_threat
sub6,33,5082,1,1,Node9,picture4.jpg,2,threat,2,threat,1,threat,1,neutral,211,,threat,threatneutral,has_threat
sub6,34,3019,1,3,Node6,picture1.jpg,2,neutral,1,threat,1,neutral,2,neutral,112,,neutral,threatneutral,has_threat
sub6,35,5503,1,3,Node10,picture4.jpg,2,neutral,1,neutral,1,threat,2,neutral,112,,neutral,neutralthreat,has_threat
sub6,36,6951,1,2,Node8,picture9.jpg,2,neutral,1,threat,2,neutral,1,neutral,121,,neutral,threatneutral,has_threat
sub6,37,2224,1,1,Node4,picture7.jpg,1,neutral,1,neutral,2,neutral,2,neutral,122,,neutral,neutralneutral,no_threat
sub6,38,2075,1,3,Node2,picture3.jpg,1,neutral,2,neutral,2,neutral,1,neutral,221,,neutral,neutralneutral,no_threat
sub6,39,3972,1,3,Node9,picture4.jpg,2,threat,1,neutral,1,threat,2,threat,112,,threat,neutralthreat,has_threat
sub6,40,3910,1,3,Node4,picture7.jpg,1,neutral,2,neutral,2,neutral,1,neutral,221,,neutral,neutralneutral,no_threat
sub6,41,2481,1,1,Node3,picture1.jpg,1,threat,1,threat,2,neutral,2,neutral,122,,threat,neutralneutral,no_threat
sub6,42,4226,1,1,Node4,picture7.jpg,1,neutral,1,neutral,2,neutral,2,neutral,122,,neutral,neutralneutral,no_threat
sub6,43,3586,1,2,Node3,picture1.jpg,1,threat,2,neutral,1,threat,2,neutral,212,,threat,neutralneutral,no_threat
sub6,44,1881,1,3,Node2,picture3.jpg,1,neutral,2,neutral,2,neutral,1,neutral,221,,neutral,neutralneutral,no_threat
sub6,45,3371,1,3,Node9,picture4.jpg,2,threat,1,threat,1,neutral,2,threat,112,,threat,threatneutral,has_threat
sub6,46,1741,1,1,Node2,picture3.jpg,1,neutral,1,neutral,2,neutral,2,neutral,122,,neutral,neutralneutral,no_threat
sub6,47,3463,1,1,Node6,picture1.jpg,2,neutral,2,neutral,1,neutral,1,threat,211,,neutral,neutralthreat,has_threat
sub6,48,4201,1,2,Node10,picture4.jpg,2,neutral,1,threat,2,neutral,1,neutral,121,,neutral,threatneutral,has_threat
sub7,1,13747,1,2,Node6,picture6.jpg,2,neutral,1,neutral,2,neutral,1,neutral,121,,neutral,neutralneutral,no_threat
sub7,2,4429,1,2,Node8,picture3.jpg,2,threat,1,neutral,2,threat,1,neutral,121,,threat,neutralneutral,no_threat
sub7,3,3015,1,1,Node1,picture8.jpg,1,neutral,1,neutral,2,neutral,2,neutral,122,,neutral,neutralneutral,no_threat
sub7,4,5231,1,2,Node2,picture2.jpg,1,threat,2,neutral,1,threat,2,threat,212,,threat,neutralthreat,has_threat
sub7,5,2257,1,3,Node4,picture1.jpg,1,neutral,2,threat,2,neutral,1,neutral,221,,neutral,threatneutral,has_threat
sub7,6,2455,1,2,Node1,picture8.jpg,1,neutral,2,neutral,1,neutral,2,neutral,212,,neutral,neutralneutral,no_threat
sub7,7,2854,1,2,Node3,picture4.jpg,1,threat,2,neutral,1,threat,2,threat,212,,threat,neutralthreat,has_threat
sub7,8,4323,1,1,Node2,picture2.jpg,1,threat,1,threat,2,threat,2,neutral,122,,threat,threatneutral,has_threat
sub7,9,3340,1,2,Node4,picture1.jpg,1,neutral,2,neutral,1,neutral,2,threat,212,,neutral,neutralthreat,has_threat
sub7,10,3531,1,1,Node3,picture4.jpg,1,threat,1,threat,2,threat,2,neutral,122,,threat,threatneutral,has_threat
sub7,11,2624,1,3,Node1,picture8.jpg,1,neutral,2,neutral,2,neutral,1,neutral,221,,neutral,neutralneutral,no_threat
sub7,12,13818,1,3,Node4,picture1.jpg,1,neutral,2,neutral,2,threat,1,neutral,221,,neutral,neutralthreat,has_threat
sub7,13,2396,1,1,Node1,picture8.jpg,1,neutral,1,neutral,2,neutral,2,neutral,122,,neutral,neutralneutral,no_threat
sub7,14,3395,1,3,Node3,picture4.jpg,1,threat,2,neutral,2,threat,1,threat,221,,threat,neutralthreat,has_threat
sub7,15,2577,1,3,Node8,picture3.jpg,2,threat,1,neutral,1,neutral,2,threat,112,,threat,neutralneutral,no_threat
sub7,16,4604,1,1,Node6,picture6.jpg,2,neutral,2,neutral,1,neutral,1,neutral,211,,neutral,neutralneutral,no_threat
sub7,17,4699,1,2,Node3,picture4.jpg,1,threat,2,threat,1,threat,2,neutral,212,,threat,threatneutral,has_threat
sub7,18,2447,1,2,Node9,picture5.jpg,2,neutral,1,neutral,2,neutral,1,threat,121,,neutral,neutralthreat,has_threat
sub7,19,3147,1,2,Node10,picture10.jpg,2,neutral,1,neutral,2,neutral,1,neutral,121,,neutral,neutralneutral,no_threat
sub7,20,2895,1,3,Node9,picture5.jpg,2,neutral,1,neutral,1,threat,2,neutral,112,,neutral,neutralthreat,has_threat
sub7,21,2381,1,2,Node4,picture1.jpg,1,neutral,2,threat,1,neutral,2,neutral,212,,neutral,threatneutral,has_threat
sub7,22,2905,1,3,Node2,picture2.jpg,1,threat,2,neutral,2,threat,1,threat,221,,threat,neutralthreat,has_threat
sub7,23,5144,1,3,Node8,picture3.jpg,2,threat,1,neutral,1,neutral,2,threat,112,,threat,neutralneutral,no_threat
sub7,24,5626,1,1,Node10,picture10.jpg,2,neutral,2,neutral,1,neutral,1,neutral,211,,neutral,neutralneutral,no_threat
sub7,25,3430,1,1,Node4,picture1.jpg,1,neutral,1,neutral,2,threat,2,neutral,122,,neutral,threatneutral,has_threat
sub7,26,3924,1,3,Node2,picture2.jpg,1,threat,2,threat,2,neutral,1,threat,221,,threat,threatneutral,has_threat
sub7,27,2322,1,3,Node1,picture8.jpg,1,neutral,2,neutral,2,neutral,1,neutral,221,,neutral,neutralneutral,no_threat
sub7,28,2050,1,1,Node4,picture1.jpg,1,neutral,1,neutral,2,neutral,2,threat,122,,neutral,neutralthreat,has_threat
sub7,29,4039,1,3,Node3,picture4.jpg,1,threat,2,threat,2,neutral,1,threat,221,,threat,threatneutral,has_threat
sub7,30,2373,1,2,Node8,picture3.jpg,2,threat,1,neutral,2,threat,1,neutral,121,,threat,neutralneutral,no_threat
sub7,31,3910,1,1,Node6,picture6.jpg,2,neutral,2,neutral,1,neutral,1,neutral,211,,neutral,neutralneutral,no_threat
sub7,32,3819,1,1,Node9,picture5.jpg,2,neutral,2,neutral,1,threat,1,neutral,211,,neutral,threatneutral,has_threat
sub7,33,2558,1,1,Node8,picture3.jpg,2,threat,2,threat,1,neutral,1,neutral,211,,threat,neutralneutral,no_threat
sub7,34,2683,1,2,Node1,picture8.jpg,1,neutral,2,neutral,1,neutral,2,neutral,212,,neutral,neutralneutral,no_threat
sub7,35,3269,1,1,Node9,picture5.jpg,2,neutral,2,neutral,1,neutral,1,threat,211,,neutral,neutralthreat,has_threat
sub7,36,3596,1,2,Node10,picture10.jpg,2,neutral,1,neutral,2,neutral,1,neutral,121,,neutral,neutralneutral,no_threat
sub7,37,4086,1,2,Node9,picture5.jpg,2,neutral,1,threat,2,neutral,1,neutral,121,,neutral,threatneutral,has_threat
sub7,38,2169,1,3,Node10,picture10.jpg,2,neutral,1,neutral,1,neutral,2,neutral,112,,neutral,neutralneutral,no_threat
sub7,39,14574,1,1,Node3,picture4.jpg,1,threat,1,threat,2,neutral,2,threat,122,,threat,neutralthreat,has_threat
sub7,40,4995,1,3,Node6,picture6.jpg,2,neutral,1,neutral,1,neutral,2,neutral,112,,neutral,neutralneutral,no_threat
sub7,41,12896,1,1,Node8,picture3.jpg,2,threat,2,threat,1,neutral,1,neutral,211,,threat,neutralneutral,no_threat
sub7,42,1846,1,2,Node6,picture6.jpg,2,neutral,1,neutral,2,neutral,1,neutral,121,,neutral,neutralneutral,no_threat
sub7,43,2087,1,3,Node9,picture5.jpg,2,neutral,1,threat,1,neutral,2,neutral,112,,neutral,threatneutral,has_threat
sub7,44,2172,1,1,Node10,picture10.jpg,2,neutral,2,neutral,1,neutral,1,neutral,211,,neutral,neutralneutral,no_threat
sub7,45,3538,1,2,Node2,picture2.jpg,1,threat,2,threat,1,threat,2,neutral,212,,threat,threatneutral,has_threat
sub7,46,3435,1,3,Node10,picture10.jpg,2,neutral,1,neutral,1,neutral,2,neutral,112,,neutral,neutralneutral,no_threat
sub7,47,3421,1,1,Node2,picture2.jpg,1,threat,1,threat,2,neutral,2,threat,122,,threat,neutralthreat,has_threat
sub7,48,1680,1,3,Node6,picture6.jpg,2,neutral,1,neutral,1,neutral,2,neutral,112,,neutral,neutralneutral,no_threat
sub8,1,4803,1,2,Node8,picture1.jpg,2,neutral,1,threat,2,neutral,1,neutral,121,,neutral,threatneutral,has_threat
sub8,2,4032,1,3,Node6,picture10.jpg,2,neutral,1,neutral,1,neutral,2,neutral,112,,neutral,neutralneutral,no_threat
sub8,3,2554,1,3,Node3,picture3.jpg,1,threat,2,neutral,2,threat,1,threat,221,,threat,neutralthreat,has_threat
sub8,4,3059,1,2,Node6,picture10.jpg,2,neutral,1,neutral,2,neutral,1,neutral,121,,neutral,neutralneutral,no_threat
sub8,5,1051,0,2,Node8,picture1.jpg,2,neutral,2,neutral,2,neutral,1,threat,221,,threat,neutralneutral,no_threat
sub8,6,3686,1,1,Node9,picture2.jpg,2,threat,2,threat,1,neutral,1,neutral,211,,threat,neutralneutral,no_threat
sub8,7,1950,1,3,Node6,picture10.jpg,2,neutral,1,neutral,1,neutral,2,neutral,112,,neutral,neutralneutral,no_threat
sub8,8,2336,1,3,Node8,picture1.jpg,2,neutral,1,threat,1,neutral,2,neutral,112,,neutral,threatneutral,has_threat
sub8,9,3093,1,3,Node9,picture2.jpg,2,threat,1,neutral,1,neutral,2,threat,112,,threat,neutralneutral,no_threat
sub8,10,2376,1,1,Node4,picture6.jpg,1,neutral,1,neutral,2,neutral,2,neutral,122,,neutral,neutralneutral,no_threat
sub8,11,2497,1,2,Node10,picture8.jpg,2,neutral,1,threat,2,neutral,1,threat,121,,neutral,threatthreat,has_threat
sub8,12,905,0,1,Node8,picture1.jpg,2,neutral,2,neutral,1,neutral,2,threat,212,,neutral,neutralthreat,has_threat
sub8,13,4647,1,3,Node4,picture6.jpg,1,neutral,2,neutral,2,neutral,1,neutral,221,,neutral,neutralneutral,no_threat
sub8,14,1383,1,1,Node2,picture4.jpg,1,threat,1,threat,2,neutral,2,neutral,122,,threat,neutralneutral,no_threat
sub8,15,1408,0,2,Node4,picture6.jpg,1,neutral,2,threat,1,neutral,1,neutral,211,,threat,neutralneutral,no_threat
sub8,16,1424,1,3,Node2,picture4.jpg,1,threat,2,neutral,2,neutral,1,threat,221,,threat,neutralneutral,no_threat
sub8,17,14468,0,3,Node8,picture1.jpg,2,neutral,2,neutral,1,neutral,2,neutral,212,,neutral,neutralneutral,no_threat
sub8,18,50431,1,2,Node3,picture3.jpg,1,threat,2,threat,1,threat,2,neutral,212,,threat,threatneutral,has_threat
sub8,19,5224,0,1,Node8,picture1.jpg,2,neutral,2,neutral,2,neutral,1,neutral,221,,neutral,neutralneutral,no_threat
sub8,20,2392,0,3,Node9,picture2.jpg,2,threat,1,neutral,2,neutral,2,threat,122,,neutral,neutralthreat,has_threat
sub8,21,4202,0,3,Node10,picture8.jpg,2,neutral,1,threat,2,threat,2,neutral,122,,threat,threatneutral,has_threat
sub8,22,1593,0,3,Node8,picture1.jpg,2,neutral,2,threat,1,neutral,2,neutral,212,,neutral,threatneutral,has_threat
sub8,23,1523,0,3,Node10,picture8.jpg,2,neutral,1,threat,2,neutral,2,neutral,122,,threat,neutralneutral,no_threat
sub8,24,3010,0,3,Node4,picture6.jpg,1,neutral,1,neutral,2,threat,1,neutral,121,,threat,neutralneutral,no_threat
sub8,25,1008,0,2,Node4,picture6.jpg,1,neutral,2,neutral,1,neutral,1,neutral,211,,neutral,neutralneutral,no_threat
sub8,26,1870,0,1,Node10,picture8.jpg,2,neutral,2,neutral,1,threat,2,neutral,212,,threat,neutralneutral,no_threat
sub8,27,1148,0,3,Node1,picture7.jpg,1,neutral,1,neutral,2,threat,1,neutral,121,,threat,neutralneutral,no_threat
sub8,28,768,0,1,Node8,picture1.jpg,2,neutral,2,neutral,1,neutral,2,neutral,212,,neutral,neutralneutral,no_threat
sub8,29,1615,1,2,Node10,picture8.jpg,2,neutral,1,threat,2,neutral,1,threat,121,,neutral,threatthreat,has_threat
sub8,30,1396,1,1,Node6,picture10.jpg,2,neutral,2,neutral,1,neutral,1,neutral,211,,neutral,neutralneutral,no_threat
sub8,31,1628,0,1,Node10,picture8.jpg,2,neutral,2,neutral,1,threat,2,threat,212,,threat,neutralthreat,has_threat
sub8,32,2799,0,3,Node2,picture4.jpg,1,threat,1,neutral,2,neutral,1,threat,121,,neutral,neutralthreat,has_threat
sub8,33,2579,1,1,Node10,picture8.jpg,2,neutral,2,neutral,1,threat,1,threat,211,,neutral,threatthreat,has_threat
sub8,34,1975,0,2,Node8,picture1.jpg,2,neutral,2,threat,2,neutral,1,neutral,221,,neutral,threatneutral,has_threat
sub8,35,1018,1,1,Node3,picture3.jpg,1,threat,1,threat,2,neutral,2,threat,122,,threat,neutralthreat,has_threat
sub8,36,1093,1,3,Node1,picture7.jpg,1,neutral,2,neutral,2,threat,1,neutral,221,,neutral,neutralthreat,has_threat
sub8,37,1787,1,1,Node4,picture6.jpg,1,neutral,1,neutral,2,neutral,2,neutral,122,,neutral,neutralneutral,no_threat
sub8,38,1380,0,3,Node2,picture4.jpg,1,threat,2,neutral,1,neutral,1,threat,211,,neutral,neutralthreat,has_threat
sub8,39,1051,0,1,Node9,picture2.jpg,2,threat,2,threat,2,neutral,1,threat,221,,threat,threatneutral,has_threat
sub8,40,1125,1,3,Node9,picture2.jpg,2,threat,1,neutral,1,neutral,2,threat,112,,threat,neutralneutral,no_threat
sub8,41,1130,1,1,Node8,picture1.jpg,2,neutral,2,neutral,1,threat,1,neutral,211,,neutral,threatneutral,has_threat
sub8,42,1304,0,3,Node2,picture4.jpg,1,threat,2,neutral,1,threat,1,threat,211,,neutral,threatthreat,has_threat
sub8,43,1229,0,1,Node1,picture7.jpg,1,neutral,1,neutral,1,threat,2,neutral,112,,neutral,neutralthreat,has_threat
sub8,44,756,0,2,Node3,picture3.jpg,1,threat,1,threat,1,threat,2,neutral,112,,neutral,threatthreat,has_threat
sub8,45,936,0,3,Node8,picture1.jpg,2,neutral,1,neutral,2,threat,2,neutral,122,,neutral,threatneutral,has_threat
sub8,46,2453,0,3,Node10,picture8.jpg,2,neutral,2,neutral,1,threat,2,neutral,212,,threat,neutralneutral,no_threat
sub8,47,2084,1,2,Node6,picture10.jpg,2,neutral,1,neutral,2,neutral,1,neutral,121,,neutral,neutralneutral,no_threat
sub8,48,1184,1,3,Node10,picture8.jpg,2,neutral,1,threat,1,threat,2,neutral,112,,neutral,threatthreat,has_threat
sub9,1,16985,1,3,Node2,picture9.jpg,1,neutral,2,neutral,2,threat,1,neutral,221,,neutral,neutralthreat,has_threat
sub9,2,7129,1,2,Node1,picture2.jpg,1,threat,2,threat,1,threat,2,neutral,212,,threat,threatneutral,has_threat
sub9,3,2092,1,1,Node4,picture1.jpg,1,neutral,1,neutral,2,neutral,2,neutral,122,,neutral,neutralneutral,no_threat
sub9,4,2315,1,3,Node9,picture8.jpg,2,neutral,1,neutral,1,threat,2,neutral,112,,neutral,neutralthreat,has_threat
sub9,5,2056,1,1,Node3,picture1.jpg,1,threat,1,threat,2,threat,2,neutral,122,,threat,threatneutral,has_threat
sub9,6,1904,1,2,Node10,picture10.jpg,2,neutral,1,neutral,2,neutral,1,neutral,121,,neutral,neutralneutral,no_threat
sub9,7,3103,1,3,Node8,picture4.jpg,2,threat,1,threat,1,neutral,2,threat,112,,threat,threatneutral,has_threat
sub9,8,1976,1,3,Node6,picture2.jpg,2,neutral,1,threat,1,threat,2,neutral,112,,neutral,threatthreat,has_threat
sub9,9,2292,1,2,Node8,picture4.jpg,2,threat,1,neutral,2,threat,1,threat,121,,threat,neutralthreat,has_threat
sub9,10,1949,1,3,Node4,picture1.jpg,1,neutral,2,neutral,2,neutral,1,neutral,221,,neutral,neutralneutral,no_threat
sub9,11,1737,1,3,Node3,picture1.jpg,1,threat,2,threat,2,neutral,1,threat,221,,threat,threatneutral,has_threat
sub9,12,1630,1,3,Node10,picture10.jpg,2,neutral,1,neutral,1,neutral,2,neutral,112,,neutral,neutralneutral,no_threat
sub9,13,2777,1,1,Node1,picture2.jpg,1,threat,1,threat,2,neutral,2,threat,122,,threat,neutralthreat,has_threat
sub9,14,1416,1,2,Node4,picture1.jpg,1,neutral,2,neutral,1,neutral,2,neutral,212,,neutral,neutralneutral,no_threat
sub9,15,2054,1,1,Node9,picture8.jpg,2,neutral,2,neutral,1,neutral,1,threat,211,,neutral,neutralthreat,has_threat
sub9,16,4345,1,1,Node2,picture9.jpg,1,neutral,1,neutral,2,neutral,2,threat,122,,neutral,neutralthreat,has_threat
sub9,17,1495,1,3,Node3,picture1.jpg,1,threat,2,neutral,2,threat,1,threat,221,,threat,neutralthreat,has_threat
sub9,18,5115,1,3,Node10,picture10.jpg,2,neutral,1,neutral,1,neutral,2,neutral,112,,neutral,neutralneutral,no_threat
sub9,19,2091,1,2,Node6,picture2.jpg,2,neutral,1,threat,2,neutral,1,threat,121,,neutral,threatthreat,has_threat
sub9,20,2235,1,2,Node3,picture1.jpg,1,threat,2,neutral,1,threat,2,threat,212,,threat,neutralthreat,has_threat
sub9,21,2410,1,1,Node1,picture2.jpg,1,threat,1,threat,2,threat,2,neutral,122,,threat,threatneutral,has_threat
sub9,22,1874,1,2,Node3,picture1.jpg,1,threat,2,threat,1,threat,2,neutral,212,,threat,threatneutral,has_threat
sub9,23,2058,1,2,Node9,picture8.jpg,2,neutral,1,threat,2,neutral,1,neutral,121,,neutral,threatneutral,has_threat
sub9,24,6175,1,3,Node8,picture4.jpg,2,threat,1,neutral,1,threat,2,threat,112,,threat,neutralthreat,has_threat
sub9,25,2208,1,1,Node10,picture10.jpg,2,neutral,2,neutral,1,neutral,1,neutral,211,,neutral,neutralneutral,no_threat
sub9,26,3456,1,1,Node8,picture4.jpg,2,threat,2,threat,1,neutral,1,threat,211,,threat,neutralthreat,has_threat
sub9,27,2075,1,2,Node10,picture10.jpg,2,neutral,1,neutral,2,neutral,1,neutral,121,,neutral,neutralneutral,no_threat
sub9,28,2401,1,1,Node8,picture4.jpg,2,threat,2,threat,1,threat,1,neutral,211,,threat,threatneutral,has_threat
sub9,29,1904,1,2,Node6,picture2.jpg,2,neutral,1,threat,2,neutral,1,threat,121,,neutral,threatthreat,has_threat
sub9,30,5444,1,3,Node4,picture1.jpg,1,neutral,2,neutral,2,neutral,1,neutral,221,,neutral,neutralneutral,no_threat
sub9,31,5879,1,3,Node9,picture8.jpg,2,neutral,1,threat,1,neutral,2,neutral,112,,neutral,threatneutral,has_threat
sub9,32,4248,1,1,Node6,picture2.jpg,2,neutral,2,neutral,1,threat,1,threat,211,,neutral,threatthreat,has_threat
sub9,33,2154,1,1,Node10,picture10.jpg,2,neutral,2,neutral,1,neutral,1,neutral,211,,neutral,neutralneutral,no_threat
sub9,34,7230,1,3,Node6,picture2.jpg,2,neutral,1,threat,1,threat,2,neutral,112,,neutral,threatthreat,has_threat
sub9,35,7683,1,2,Node9,picture8.jpg,2,neutral,1,neutral,2,neutral,1,threat,121,,neutral,neutralthreat,has_threat
sub9,36,1716,1,3,Node2,picture9.jpg,1,neutral,2,threat,2,neutral,1,neutral,221,,neutral,threatneutral,has_threat
sub9,37,2250,1,1,Node3,picture1.jpg,1,threat,1,threat,2,neutral,2,threat,122,,threat,neutralthreat,has_threat
sub9,38,2248,1,1,Node9,picture8.jpg,2,neutral,2,neutral,1,threat,1,neutral,211,,neutral,threatneutral,has_threat
sub9,39,10588,1,1,Node2,picture9.jpg,1,neutral,1,neutral,2,threat,2,neutral,122,,neutral,threatneutral,has_threat
sub9,40,1821,1,3,Node1,picture2.jpg,1,threat,2,threat,2,neutral,1,threat,221,,threat,threatneutral,has_threat
sub9,41,3803,1,2,Node2,picture9.jpg,1,neutral,2,neutral,1,neutral,2,threat,212,,neutral,neutralthreat,has_threat
sub9,42,2041,1,1,Node4,picture1.jpg,1,neutral,1,neutral,2,neutral,2,neutral,122,,neutral,neutralneutral,no_threat
sub9,43,3835,1,3,Node1,picture2.jpg,1,threat,2,neutral,2,threat,1,threat,221,,threat,neutralthreat,has_threat
sub9,44,4108,1,2,Node2,picture9.jpg,1,neutral,2,threat,1,neutral,2,neutral,212,,neutral,threatneutral,has_threat
sub9,45,1463,1,2,Node4,picture1.jpg,1,neutral,2,neutral,1,neutral,2,neutral,212,,neutral,neutralneutral,no_threat
sub9,46,1965,1,1,Node6,picture2.jpg,2,neutral,2,neutral,1,threat,1,threat,211,,neutral,threatthreat,has_threat
sub9,47,3233,1,2,Node1,picture2.jpg,1,threat,2,neutral,1,threat,2,threat,212,,threat,neutralthreat,has_threat
sub9,48,2206,1,2,Node8,picture4.jpg,2,threat,1,threat,2,threat,1,neutral,121,,threat,threatneutral,has_threat
sub10,1,4389,0,1,Node9,picture3.jpg,2,threat,2,threat,2,neutral,1,threat,221,,threat,threatneutral,has_threat
sub10,2,3086,1,3,Node9,picture3.jpg,2,threat,1,neutral,1,neutral,2,threat,112,,threat,neutralneutral,no_threat
sub10,3,3867,1,3,Node6,picture5.jpg,2,neutral,1,threat,1,neutral,2,neutral,112,,neutral,threatneutral,has_threat
sub10,4,3032,1,2,Node9,picture3.jpg,2,threat,1,neutral,2,threat,1,neutral,121,,threat,neutralneutral,no_threat
sub10,5,4774,1,2,Node3,picture4.jpg,1,threat,2,neutral,1,threat,2,neutral,212,,threat,neutralneutral,no_threat
sub10,6,2025,1,1,Node9,picture3.jpg,2,threat,2,threat,1,neutral,1,neutral,211,,threat,neutralneutral,no_threat
sub10,7,3356,1,1,Node10,picture9.jpg,2,neutral,2,neutral,1,threat,1,neutral,211,,neutral,threatneutral,has_threat
sub10,8,2382,1,1,Node1,picture2.jpg,1,threat,1,threat,2,neutral,2,threat,122,,threat,neutralthreat,has_threat
sub10,9,3637,0,2,Node2,picture4.jpg,1,neutral,1,neutral,1,neutral,2,neutral,112,,neutral,neutralneutral,no_threat
sub10,10,2493,1,3,Node10,picture9.jpg,2,neutral,1,threat,1,neutral,2,neutral,112,,neutral,threatneutral,has_threat
sub10,11,3741,1,2,Node8,picture1.jpg,2,neutral,1,neutral,2,neutral,1,neutral,121,,neutral,neutralneutral,no_threat
sub10,12,5536,0,2,Node4,picture10.jpg,1,neutral,2,neutral,1,neutral,1,threat,211,,neutral,neutralthreat,has_threat
sub10,13,3045,1,2,Node8,picture1.jpg,2,neutral,1,neutral,2,neutral,1,neutral,121,,neutral,neutralneutral,no_threat
sub10,14,5878,1,1,Node6,picture5.jpg,2,neutral,2,neutral,1,neutral,1,threat,211,,neutral,neutralthreat,has_threat
sub10,15,1918,1,2,Node9,picture3.jpg,2,threat,1,neutral,2,threat,1,neutral,121,,threat,neutralneutral,no_threat
sub10,16,4571,1,1,Node3,picture4.jpg,1,threat,1,threat,2,neutral,2,neutral,122,,threat,neutralneutral,no_threat
sub10,17,2871,1,1,Node8,picture1.jpg,2,neutral,2,neutral,1,neutral,1,neutral,211,,neutral,neutralneutral,no_threat
sub10,18,2369,1,3,Node6,picture5.jpg,2,neutral,1,neutral,1,threat,2,neutral,112,,neutral,neutralthreat,has_threat
sub10,19,4879,1,1,Node9,picture3.jpg,2,threat,2,threat,1,neutral,1,neutral,211,,threat,neutralneutral,no_threat
sub10,20,2567,1,3,Node2,picture4.jpg,1,neutral,2,neutral,2,neutral,1,neutral,221,,neutral,neutralneutral,no_threat
sub10,21,4678,1,2,Node1,picture2.jpg,1,threat,2,threat,1,threat,2,neutral,212,,threat,threatneutral,has_threat
sub10,22,3667,1,3,Node3,picture4.jpg,1,threat,2,neutral,2,neutral,1,threat,221,,threat,neutralneutral,no_threat
sub10,23,3903,1,2,Node2,picture4.jpg,1,neutral,2,neutral,1,neutral,2,neutral,212,,neutral,neutralneutral,no_threat
sub10,24,3766,1,2,Node10,picture9.jpg,2,neutral,1,neutral,2,neutral,1,threat,121,,neutral,neutralthreat,has_threat
sub10,25,2597,1,1,Node6,picture5.jpg,2,neutral,2,neutral,1,threat,1,neutral,211,,neutral,threatneutral,has_threat
sub10,26,3048,1,1,Node8,picture1.jpg,2,neutral,2,neutral,1,neutral,1,neutral,211,,neutral,neutralneutral,no_threat
sub10,27,2137,1,2,Node6,picture5.jpg,2,neutral,1,neutral,2,neutral,1,threat,121,,neutral,neutralthreat,has_threat
sub10,28,3278,1,2,Node4,picture10.jpg,1,neutral,2,neutral,1,neutral,2,threat,212,,neutral,neutralthreat,has_threat
sub10,29,6196,0,3,Node8,picture1.jpg,2,neutral,1,threat,2,threat,2,neutral,122,,threat,threatneutral,has_threat
sub10,30,3196,1,3,Node9,picture3.jpg,2,threat,1,neutral,1,neutral,2,threat,112,,threat,neutralneutral,no_threat
sub10,31,2974,1,3,Node2,picture4.jpg,1,neutral,2,neutral,2,neutral,1,neutral,221,,neutral,neutralneutral,no_threat
sub10,32,3471,1,3,Node4,picture10.jpg,1,neutral,2,threat,2,neutral,1,neutral,221,,neutral,threatneutral,has_threat
sub10,33,2004,1,2,Node3,picture4.jpg,1,threat,2,neutral,1,threat,2,neutral,212,,threat,neutralneutral,no_threat
sub10,34,3400,1,1,Node4,picture10.jpg,1,neutral,1,neutral,2,neutral,2,threat,122,,neutral,neutralthreat,has_threat
sub10,35,4060,0,1,Node8,picture1.jpg,2,neutral,2,neutral,2,threat,1,threat,221,,threat,neutralthreat,has_threat
sub10,36,5031,1,1,Node2,picture4.jpg,1,neutral,1,neutral,2,neutral,2,neutral,122,,neutral,neutralneutral,no_threat
sub10,37,3996,1,1,Node4,picture10.jpg,1,neutral,1,neutral,2,threat,2,neutral,122,,neutral,threatneutral,has_threat
sub10,38,3034,1,2,Node1,picture2.jpg,1,threat,2,neutral,1,threat,2,threat,212,,threat,neutralthreat,has_threat
sub10,39,3915,1,1,Node2,picture4.jpg,1,neutral,1,neutral,2,neutral,2,neutral,122,,neutral,neutralneutral,no_threat
sub10,40,3554,1,1,Node3,picture4.jpg,1,threat,1,threat,2,neutral,2,neutral,122,,threat,neutralneutral,no_threat
sub10,41,4097,0,3,Node4,picture10.jpg,1,neutral,1,threat,2,neutral,1,neutral,121,,neutral,threatneutral,has_threat
sub10,42,2367,1,2,Node4,picture10.jpg,1,neutral,2,threat,1,neutral,2,neutral,212,,neutral,threatneutral,has_threat
sub10,43,4538,1,3,Node3,picture4.jpg,1,threat,2,neutral,2,neutral,1,threat,221,,threat,neutralneutral,no_threat
sub10,44,4051,0,1,Node4,picture10.jpg,1,neutral,1,neutral,1,threat,2,neutral,112,,neutral,neutralthreat,has_threat
sub10,45,2761,1,3,Node4,picture10.jpg,1,neutral,2,neutral,2,threat,1,neutral,221,,neutral,neutralthreat,has_threat
sub10,46,5895,1,2,Node2,picture4.jpg,1,neutral,2,neutral,1,neutral,2,neutral,212,,neutral,neutralneutral,no_threat
sub10,47,3311,1,2,Node10,picture9.jpg,2,neutral,1,threat,2,neutral,1,neutral,121,,neutral,threatneutral,has_threat
sub10,48,1953,1,3,Node8,picture1.jpg,2,neutral,1,neutral,1,neutral,2,neutral,112,,neutral,neutralneutral,no_threat
sub11,1,3651,1,1,Node8,picture7.jpg,2,neutral,2,neutral,1,neutral,1,neutral,211,,neutral,neutralneutral,no_threat
sub11,2,4478,1,3,Node6,picture1.jpg,2,neutral,1,threat,1,threat,2,neutral,112,,neutral,threatthreat,has_threat
sub11,3,3230,1,1,Node8,picture7.jpg,2,neutral,2,neutral,1,neutral,1,neutral,211,,neutral,neutralneutral,no_threat
sub11,4,2849,1,1,Node2,picture3.jpg,1,threat,1,threat,2,threat,2,neutral,122,,threat,threatneutral,has_threat
sub11,5,4214,1,3,Node10,picture9.jpg,2,neutral,1,threat,1,neutral,2,neutral,112,,neutral,threatneutral,has_threat
sub11,6,4147,1,2,Node4,picture4.jpg,1,threat,2,threat,1,threat,2,neutral,212,,threat,threatneutral,has_threat
sub11,7,2585,1,1,Node2,picture3.jpg,1,threat,1,threat,2,neutral,2,threat,122,,threat,neutralthreat,has_threat
sub11,8,4020,1,2,Node10,picture9.jpg,2,neutral,1,neutral,2,neutral,1,threat,121,,neutral,neutralthreat,has_threat
sub11,9,3389,1,1,Node4,picture4.jpg,1,threat,1,threat,2,threat,2,neutral,122,,threat,threatneutral,has_threat
sub11,10,4011,1,1,Node3,picture4.jpg,1,neutral,1,neutral,2,neutral,2,neutral,122,,neutral,neutralneutral,no_threat
sub11,11,2429,1,3,Node2,picture3.jpg,1,threat,2,neutral,2,threat,1,threat,221,,threat,neutralthreat,has_threat
sub11,12,2956,1,1,Node10,picture9.jpg,2,neutral,2,neutral,1,neutral,1,threat,211,,neutral,neutralthreat,has_threat
sub11,13,3886,1,3,Node6,picture1.jpg,2,neutral,1,threat,1,threat,2,neutral,112,,neutral,threatthreat,has_threat
sub11,14,3856,1,2,Node3,picture4.jpg,1,neutral,2,neutral,1,neutral,2,neutral,212,,neutral,neutralneutral,no_threat
sub11,15,3964,1,2,Node2,picture3.jpg,1,threat,2,threat,1,threat,2,neutral,212,,threat,threatneutral,has_threat
sub11,16,4099,1,1,Node10,picture9.jpg,2,neutral,2,neutral,1,threat,1,neutral,211,,neutral,threatneutral,has_threat
sub11,17,6264,1,2,Node2,picture3.jpg,1,threat,2,neutral,1,threat,2,threat,212,,threat,neutralthreat,has_threat
sub11,18,7474,1,3,Node1,picture3.jpg,1,neutral,2,threat,2,neutral,1,neutral,221,,neutral,threatneutral,has_threat
sub11,19,13063,1,3,Node4,picture4.jpg,1,threat,2,neutral,2,threat,1,threat,221,,threat,neutralthreat,has_threat
sub11,20,10644,1,3,Node9,picture1.jpg,2,threat,1,neutral,1,threat,2,threat,112,,threat,neutralthreat,has_threat
sub11,21,14260,1,2,Node6,picture1.jpg,2,neutral,1,threat,2,neutral,1,threat,121,,neutral,threatthreat,has_threat
sub11,22,16125,1,3,Node3,picture4.jpg,1,neutral,2,neutral,2,neutral,1,neutral,221,,neutral,neutralneutral,no_threat
sub11,23,12884,1,1,Node6,picture1.jpg,2,neutral,2,neutral,1,threat,1,threat,211,,neutral,threatthreat,has_threat
sub11,24,15301,1,2,Node10,picture9.jpg,2,neutral,1,threat,2,neutral,1,neutral,121,,neutral,threatneutral,has_threat
sub11,25,3470,1,3,Node9,picture1.jpg,2,threat,1,threat,1,neutral,2,threat,112,,threat,threatneutral,has_threat
sub11,26,10164,1,2,Node8,picture7.jpg,2,neutral,1,neutral,2,neutral,1,neutral,121,,neutral,neutralneutral,no_threat
sub11,27,16320,1,2,Node1,picture3.jpg,1,neutral,2,threat,1,neutral,2,neutral,212,,neutral,threatneutral,has_threat
sub11,28,3186,1,3,Node3,picture4.jpg,1,neutral,2,neutral,2,neutral,1,neutral,221,,neutral,neutralneutral,no_threat
sub11,29,5848,1,2,Node1,picture3.jpg,1,neutral,2,neutral,1,neutral,2,threat,212,,neutral,neutralthreat,has_threat
sub11,30,6715,1,3,Node2,picture3.jpg,1,threat,2,threat,2,neutral,1,threat,221,,threat,threatneutral,has_threat
sub11,31,6358,1,3,Node8,picture7.jpg,2,neutral,1,neutral,1,neutral,2,neutral,112,,neutral,neutralneutral,no_threat
sub11,32,4130,1,1,Node6,picture1.jpg,2,neutral,2,neutral,1,threat,1,threat,211,,neutral,threatthreat,has_threat
sub11,33,2753,1,3,Node8,picture7.jpg,2,neutral,1,neutral,1,neutral,2,neutral,112,,neutral,neutralneutral,no_threat
sub11,34,4363,1,2,Node6,picture1.jpg,2,neutral,1,threat,2,neutral,1,threat,121,,neutral,threatthreat,has_threat
sub11,35,3720,0,1,Node8,picture7.jpg,2,neutral,2,neutral,1,threat,2,threat,212,,threat,neutralthreat,has_threat
sub11,36,5127,1,2,Node8,picture7.jpg,2,neutral,1,neutral,2,neutral,1,neutral,121,,neutral,neutralneutral,no_threat
sub11,37,4157,1,2,Node9,picture1.jpg,2,threat,1,neutral,2,threat,1,threat,121,,threat,neutralthreat,has_threat
sub11,38,2086,1,2,Node3,picture4.jpg,1,neutral,2,neutral,1,neutral,2,neutral,212,,neutral,neutralneutral,no_threat
sub11,39,10547,1,1,Node1,picture3.jpg,1,neutral,1,neutral,2,threat,2,neutral,122,,neutral,threatneutral,has_threat
sub11,40,2797,1,1,Node9,picture1.jpg,2,threat,2,threat,1,neutral,1,threat,211,,threat,neutralthreat,has_threat
sub11,41,3078,1,1,Node3,picture4.jpg,1,neutral,1,neutral,2,neutral,2,neutral,122,,neutral,neutralneutral,no_threat
sub11,42,3139,1,1,Node4,picture4.jpg,1,threat,1,threat,2,neutral,2,threat,122,,threat,neutralthreat,has_threat
sub11,43,10323,1,3,Node1,picture3.jpg,1,neutral,2,neutral,2,threat,1,neutral,221,,neutral,neutralthreat,has_threat
sub11,44,7585,1,1,Node9,picture1.jpg,2,threat,2,threat,1,threat,1,neutral,211,,threat,threatneutral,has_threat
sub11,45,3817,1,3,Node10,picture9.jpg,2,neutral,1,neutral,1,threat,2,neutral,112,,neutral,neutralthreat,has_threat
sub11,46,3534,1,3,Node4,picture4.jpg,1,threat,2,threat,2,neutral,1,threat,221,,threat,threatneutral,has_threat
sub11,47,2816,1,1,Node1,picture3.jpg,1,neutral,1,neutral,2,neutral,2,threat,122,,neutral,neutralthreat,has_threat
sub11,48,2650,1,2,Node9,picture1.jpg,2,threat,1,threat,2,threat,1,neutral,121,,threat,threatneutral,has_threat
sub12,1,8371,1,2,Node6,picture9.jpg,2,neutral,1,threat,2,neutral,1,neutral,121,,neutral,threatneutral,has_threat
sub12,2,3898,1,2,Node10,picture3.jpg,2,threat,1,threat,2,threat,1,threat,121,,threat,threatthreat,has_threat
sub12,3,6465,1,2,Node8,picture4.jpg,2,threat,1,neutral,2,threat,1,threat,121,,threat,neutralthreat,has_threat
sub12,4,2654,1,3,Node6,picture9.jpg,2,neutral,1,threat,1,neutral,2,neutral,112,,neutral,threatneutral,has_threat
sub12,5,4017,1,1,Node8,picture4.jpg,2,threat,2,threat,1,neutral,1,threat,211,,threat,neutralthreat,has_threat
sub12,6,3072,1,2,Node9,picture7.jpg,2,neutral,1,neutral,2,neutral,1,neutral,121,,neutral,neutralneutral,no_threat
sub12,7,12278,1,2,Node1,picture2.jpg,1,threat,2,threat,1,threat,2,neutral,212,,threat,threatneutral,has_threat
sub12,8,4881,1,3,Node4,picture1.jpg,1,neutral,2,threat,2,threat,1,neutral,221,,neutral,threatthreat,has_threat
sub12,9,5311,1,3,Node8,picture4.jpg,2,threat,1,threat,1,neutral,2,threat,112,,threat,threatneutral,has_threat
sub12,10,2675,1,3,Node6,picture9.jpg,2,neutral,1,neutral,1,threat,2,neutral,112,,neutral,neutralthreat,has_threat
sub12,11,3599,1,3,Node4,picture1.jpg,1,neutral,2,threat,2,threat,1,neutral,221,,neutral,threatthreat,has_threat
sub12,12,2783,1,3,Node10,picture3.jpg,2,threat,1,threat,1,threat,2,threat,112,,threat,threatthreat,has_threat
sub12,13,13074,1,3,Node2,picture5.jpg,1,neutral,2,neutral,2,threat,1,neutral,221,,neutral,neutralthreat,has_threat
sub12,14,2441,1,3,Node3,picture1.jpg,1,threat,2,threat,2,neutral,1,threat,221,,threat,threatneutral,has_threat
sub12,15,3369,1,2,Node9,picture7.jpg,2,neutral,1,neutral,2,neutral,1,neutral,121,,neutral,neutralneutral,no_threat
sub12,16,14875,1,2,Node10,picture3.jpg,2,threat,1,threat,2,threat,1,threat,121,,threat,threatthreat,has_threat
sub12,17,6429,1,1,Node3,picture1.jpg,1,threat,1,threat,2,threat,2,neutral,122,,threat,threatneutral,has_threat
sub12,18,4826,1,1,Node6,picture9.jpg,2,neutral,2,neutral,1,threat,1,neutral,211,,neutral,threatneutral,has_threat
sub12,19,3779,1,1,Node8,picture4.jpg,2,threat,2,threat,1,threat,1,neutral,211,,threat,threatneutral,has_threat
sub12,20,4874,1,3,Node9,picture7.jpg,2,neutral,1,neutral,1,neutral,2,neutral,112,,neutral,neutralneutral,no_threat
sub12,21,9819,1,2,Node1,picture2.jpg,1,threat,2,neutral,1,threat,2,threat,212,,threat,neutralthreat,has_threat
sub12,22,3105,1,3,Node9,picture7.jpg,2,neutral,1,neutral,1,neutral,2,neutral,112,,neutral,neutralneutral,no_threat
sub12,23,7517,1,2,Node4,picture1.jpg,1,neutral,2,threat,1,neutral,2,threat,212,,neutral,threatthreat,has_threat
sub12,24,2828,1,1,Node2,picture5.jpg,1,neutral,1,neutral,2,threat,2,neutral,122,,neutral,threatneutral,has_threat
sub12,25,2087,1,1,Node4,picture1.jpg,1,neutral,1,neutral,2,threat,2,threat,122,,neutral,threatthreat,has_threat
sub12,26,2797,1,2,Node2,picture5.jpg,1,neutral,2,threat,1,neutral,2,neutral,212,,neutral,threatneutral,has_threat
sub12,27,2943,1,1,Node6,picture9.jpg,2,neutral,2,neutral,1,neutral,1,threat,211,,neutral,neutralthreat,has_threat
sub12,28,10856,1,1,Node9,picture7.jpg,2,neutral,2,neutral,1,neutral,1,neutral,211,,neutral,neutralneutral,no_threat
sub12,29,3443,1,1,Node3,picture1.jpg,1,threat,1,threat,2,neutral,2,threat,122,,threat,neutralthreat,has_threat
sub12,30,5938,1,1,Node1,picture2.jpg,1,threat,1,threat,2,threat,2,neutral,122,,threat,threatneutral,has_threat
sub12,31,4782,1,3,Node8,picture4.jpg,2,threat,1,neutral,1,threat,2,threat,112,,threat,neutralthreat,has_threat
sub12,32,4556,1,1,Node10,picture3.jpg,2,threat,2,threat,1,threat,1,threat,211,,threat,threatthreat,has_threat
sub12,33,4265,1,2,Node8,picture4.jpg,2,threat,1,threat,2,threat,1,neutral,121,,threat,threatneutral,has_threat
sub12,34,4949,1,3,Node1,picture2.jpg,1,threat,2,neutral,2,threat,1,threat,221,,threat,neutralthreat,has_threat
sub12,35,6288,1,3,Node2,picture5.jpg,1,neutral,2,threat,2,neutral,1,neutral,221,,neutral,threatneutral,has_threat
sub12,36,3959,1,1,Node10,picture3.jpg,2,threat,2,threat,1,threat,1,threat,211,,threat,threatthreat,has_threat
sub12,37,5143,1,1,Node9,picture7.jpg,2,neutral,2,neutral,1,neutral,1,neutral,211,,neutral,neutralneutral,no_threat
sub12,38,3993,1,2,Node3,picture1.jpg,1,threat,2,neutral,1,threat,2,threat,212,,threat,neutralthreat,has_threat
sub12,39,19719,1,2,Node4,picture1.jpg,1,neutral,2,threat,1,neutral,2,threat,212,,neutral,threatthreat,has_threat
sub12,40,2827,1,3,Node3,picture1.jpg,1,threat,2,neutral,2,threat,1,threat,221,,threat,neutralthreat,has_threat
sub12,41,2426,1,1,Node1,picture2.jpg,1,threat,1,threat,2,neutral,2,threat,122,,threat,neutralthreat,has_threat
sub12,42,2800,1,2,Node3,picture1.jpg,1,threat,2,threat,1,threat,2,neutral,212,,threat,threatneutral,has_threat
sub12,43,2423,1,3,Node1,picture2.jpg,1,threat,2,threat,2,neutral,1,threat,221,,threat,threatneutral,has_threat
sub12,44,3672,1,1,Node4,picture1.jpg,1,neutral,1,neutral,2,threat,2,threat,122,,neutral,threatthreat,has_threat
sub12,45,12713,1,2,Node2,picture5.jpg,1,neutral,2,neutral,1,neutral,2,threat,212,,neutral,neutralthreat,has_threat
sub12,46,3876,1,2,Node6,picture9.jpg,2,neutral,1,neutral,2,neutral,1,threat,121,,neutral,neutralthreat,has_threat
sub12,47,3279,1,3,Node10,picture3.jpg,2,threat,1,threat,1,threat,2,threat,112,,threat,threatthreat,has_threat
sub12,48,6632,1,1,Node2,picture5.jpg,1,neutral,1,neutral,2,neutral,2,threat,122,,neutral,neutralthreat,has_threat
sub13,1,4222,1,3,Node9,picture2.jpg,2,threat,1,neutral,1,neutral,2,threat,112,,threat,neutralneutral,no_threat
sub13,2,6437,1,3,Node4,picture4.jpg,1,threat,2,neutral,2,threat,1,threat,221,,threat,neutralthreat,has_threat
sub13,3,3202,1,1,Node10,picture1.jpg,2,threat,2,threat,1,neutral,1,threat,211,,threat,neutralthreat,has_threat
sub13,4,3416,1,1,Node8,picture2.jpg,2,neutral,2,neutral,1,neutral,1,threat,211,,neutral,neutralthreat,has_threat
sub13,5,5113,1,3,Node3,picture3.jpg,1,threat,2,threat,2,threat,1,threat,221,,threat,threatthreat,has_threat
sub13,6,2155,1,3,Node6,picture5.jpg,2,neutral,1,threat,1,neutral,2,neutral,112,,neutral,threatneutral,has_threat
sub13,7,3212,0,2,Node3,picture3.jpg,1,threat,1,neutral,1,threat,2,threat,112,,threat,neutralthreat,has_threat
sub13,8,7968,1,2,Node8,picture2.jpg,2,neutral,1,threat,2,neutral,1,neutral,121,,neutral,threatneutral,has_threat
sub13,9,4880,1,2,Node3,picture3.jpg,1,threat,2,threat,1,threat,2,threat,212,,threat,threatthreat,has_threat
sub13,10,6566,1,3,Node4,picture4.jpg,1,threat,2,threat,2,neutral,1,threat,221,,threat,threatneutral,has_threat
sub13,11,2807,1,2,Node10,picture1.jpg,2,threat,1,threat,2,threat,1,neutral,121,,threat,threatneutral,has_threat
sub13,12,2975,1,3,Node6,picture5.jpg,2,neutral,1,neutral,1,threat,2,neutral,112,,neutral,neutralthreat,has_threat
sub13,13,4565,1,1,Node1,picture3.jpg,1,neutral,1,neutral,2,threat,2,threat,122,,neutral,threatthreat,has_threat
sub13,14,2932,1,1,Node3,picture3.jpg,1,threat,1,threat,2,threat,2,threat,122,,threat,threatthreat,has_threat
sub13,15,3529,1,3,Node1,picture3.jpg,1,neutral,2,threat,2,threat,1,neutral,221,,neutral,threatthreat,has_threat
sub13,16,34500,1,1,Node6,picture5.jpg,2,neutral,2,neutral,1,neutral,1,threat,211,,neutral,neutralthreat,has_threat
sub13,17,3067,1,2,Node9,picture2.jpg,2,threat,1,neutral,2,threat,1,neutral,121,,threat,neutralneutral,no_threat
sub13,18,3857,0,3,Node3,picture3.jpg,1,threat,1,neutral,2,threat,1,threat,121,,threat,neutralthreat,has_threat
sub13,19,5409,1,1,Node6,picture5.jpg,2,neutral,2,neutral,1,threat,1,neutral,211,,neutral,threatneutral,has_threat
sub13,20,3467,0,3,Node8,picture2.jpg,2,neutral,1,threat,2,threat,2,neutral,122,,threat,threatneutral,has_threat
sub13,21,10941,1,1,Node9,picture2.jpg,2,threat,2,threat,1,neutral,1,neutral,211,,threat,neutralneutral,no_threat
sub13,22,7588,1,2,Node4,picture4.jpg,1,threat,2,neutral,1,threat,2,threat,212,,threat,neutralthreat,has_threat
sub13,23,4397,1,1,Node2,picture1.jpg,1,neutral,1,neutral,2,threat,2,threat,122,,neutral,threatthreat,has_threat
sub13,24,3012,1,2,Node1,picture3.jpg,1,neutral,2,threat,1,neutral,2,threat,212,,neutral,threatthreat,has_threat
sub13,25,3535,0,1,Node2,picture1.jpg,1,neutral,1,neutral,2,neutral,1,threat,121,,neutral,neutralthreat,has_threat
sub13,26,7748,1,1,Node3,picture3.jpg,1,threat,1,threat,2,threat,2,threat,122,,threat,threatthreat,has_threat
sub13,27,5601,1,2,Node2,picture1.jpg,1,neutral,2,threat,1,neutral,2,threat,212,,neutral,threatthreat,has_threat
sub13,28,2538,1,3,Node1,picture3.jpg,1,neutral,2,threat,2,threat,1,neutral,221,,neutral,threatthreat,has_threat
sub13,29,5958,1,1,Node4,picture4.jpg,1,threat,1,threat,2,neutral,2,threat,122,,threat,neutralthreat,has_threat
sub13,30,2629,1,2,Node1,picture3.jpg,1,neutral,2,threat,1,neutral,2,threat,212,,neutral,threatthreat,has_threat
sub13,31,2179,1,2,Node2,picture1.jpg,1,neutral,2,threat,1,neutral,2,threat,212,,neutral,threatthreat,has_threat
sub13,32,3712,1,3,Node3,picture3.jpg,1,threat,2,threat,2,threat,1,threat,221,,threat,threatthreat,has_threat
sub13,33,3374,1,2,Node6,picture5.jpg,2,neutral,1,threat,2,neutral,1,neutral,121,,neutral,threatneutral,has_threat
sub13,34,2808,1,2,Node4,picture4.jpg,1,threat,2,threat,1,threat,2,neutral,212,,threat,threatneutral,has_threat
sub13,35,4777,1,3,Node9,picture2.jpg,2,threat,1,neutral,1,neutral,2,threat,112,,threat,neutralneutral,no_threat
sub13,36,2951,1,2,Node8,picture2.jpg,2,neutral,1,neutral,2,neutral,1,threat,121,,neutral,neutralthreat,has_threat
sub13,37,2369,1,1,Node10,picture1.jpg,2,threat,2,threat,1,threat,1,neutral,211,,threat,threatneutral,has_threat
sub13,38,3276,1,2,Node9,picture2.jpg,2,threat,1,neutral,2,threat,1,neutral,121,,threat,neutralneutral,no_threat
sub13,39,5776,1,3,Node8,picture2.jpg,2,neutral,1,neutral,1,threat,2,neutral,112,,neutral,neutralthreat,has_threat
sub13,40,2384,1,3,Node2,picture1.jpg,1,neutral,2,threat,2,threat,1,neutral,221,,neutral,threatthreat,has_threat
sub13,41,6613,1,2,Node3,picture3.jpg,1,threat,2,threat,1,threat,2,threat,212,,threat,threatthreat,has_threat
sub13,42,4137,1,3,Node8,picture2.jpg,2,neutral,1,threat,1,neutral,2,neutral,112,,neutral,threatneutral,has_threat
sub13,43,2482,1,1,Node2,picture1.jpg,1,neutral,1,neutral,2,threat,2,threat,122,,neutral,threatthreat,has_threat
sub13,44,2715,1,1,Node1,picture3.jpg,1,neutral,1,neutral,2,threat,2,threat,122,,neutral,threatthreat,has_threat
sub13,45,2208,1,3,Node2,picture1.jpg,1,neutral,2,threat,2,threat,1,neutral,221,,neutral,threatthreat,has_threat
sub13,46,3160,1,1,Node8,picture2.jpg,2,neutral,2,neutral,1,threat,1,neutral,211,,neutral,threatneutral,has_threat
sub13,47,5526,1,1,Node9,picture2.jpg,2,threat,2,threat,1,neutral,1,neutral,211,,threat,neutralneutral,no_threat
sub13,48,3991,1,3,Node10,picture1.jpg,2,threat,1,threat,1,neutral,2,threat,112,,threat,threatneutral,has_threat
sub14,1,10636,1,1,Node8,picture5.jpg,2,neutral,2,neutral,1,neutral,1,threat,211,,neutral,neutralthreat,has_threat
sub14,2,12756,1,3,Node10,picture1.jpg,2,threat,1,threat,1,neutral,2,threat,112,,threat,threatneutral,has_threat
sub14,3,11053,1,2,Node6,picture1.jpg,2,neutral,1,neutral,2,neutral,1,threat,121,,neutral,neutralthreat,has_threat
sub14,4,10365,1,1,Node10,picture1.jpg,2,threat,2,threat,1,neutral,1,threat,211,,threat,neutralthreat,has_threat
sub14,5,14131,1,3,Node9,picture3.jpg,2,threat,1,neutral,1,threat,2,threat,112,,threat,neutralthreat,has_threat
sub14,6,12693,1,2,Node10,picture1.jpg,2,threat,1,threat,2,threat,1,neutral,121,,threat,threatneutral,has_threat
sub14,7,13811,1,3,Node9,picture3.jpg,2,threat,1,threat,1,neutral,2,threat,112,,threat,threatneutral,has_threat
sub14,8,4143,1,3,Node8,picture5.jpg,2,neutral,1,threat,1,neutral,2,neutral,112,,neutral,threatneutral,has_threat
sub14,9,10576,1,2,Node1,picture4.jpg,1,neutral,2,neutral,1,neutral,2,threat,212,,neutral,neutralthreat,has_threat
sub14,10,3295,1,3,Node2,picture6.jpg,1,neutral,2,threat,2,threat,1,neutral,221,,neutral,threatthreat,has_threat
sub14,11,2876,1,3,Node4,picture4.jpg,1,threat,2,neutral,2,neutral,1,threat,221,,threat,neutralneutral,no_threat
sub14,12,9305,1,3,Node6,picture1.jpg,2,neutral,1,threat,1,neutral,2,neutral,112,,neutral,threatneutral,has_threat
sub14,13,9408,0,3,Node4,picture4.jpg,1,threat,1,neutral,2,neutral,1,threat,121,,neutral,neutralthreat,has_threat
sub14,14,8039,0,2,Node4,picture4.jpg,1,threat,1,neutral,1,threat,2,threat,112,,threat,neutralthreat,has_threat
sub14,15,3423,1,3,Node4,picture4.jpg,1,threat,2,neutral,2,neutral,1,threat,221,,threat,neutralneutral,no_threat
sub14,16,17408,1,2,Node9,picture3.jpg,2,threat,1,neutral,2,threat,1,threat,121,,threat,neutralthreat,has_threat
sub14,17,21633,1,1,Node3,picture2.jpg,1,threat,1,threat,2,neutral,2,threat,122,,threat,neutralthreat,has_threat
sub14,18,17238,1,1,Node10,picture1.jpg,2,threat,2,threat,1,threat,1,neutral,211,,threat,threatneutral,has_threat
sub14,19,4197,1,3,Node6,picture1.jpg,2,neutral,1,neutral,1,threat,2,neutral,112,,neutral,neutralthreat,has_threat
sub14,20,4094,1,2,Node8,picture5.jpg,2,neutral,1,threat,2,neutral,1,neutral,121,,neutral,threatneutral,has_threat
sub14,21,8093,1,1,Node6,picture1.jpg,2,neutral,2,neutral,1,neutral,1,threat,211,,neutral,neutralthreat,has_threat
sub14,22,3689,1,1,Node2,picture6.jpg,1,neutral,1,neutral,2,threat,2,threat,122,,neutral,threatthreat,has_threat
sub14,23,4683,1,1,Node1,picture4.jpg,1,neutral,1,neutral,2,threat,2,neutral,122,,neutral,threatneutral,has_threat
sub14,24,5695,1,2,Node3,picture2.jpg,1,threat,2,neutral,1,threat,2,threat,212,,threat,neutralthreat,has_threat
sub14,25,5246,1,1,Node2,picture6.jpg,1,neutral,1,neutral,2,threat,2,threat,122,,neutral,threatthreat,has_threat
sub14,26,7017,1,1,Node9,picture3.jpg,2,threat,2,threat,1,neutral,1,threat,211,,threat,neutralthreat,has_threat
sub14,27,14279,1,1,Node1,picture4.jpg,1,neutral,1,neutral,2,neutral,2,threat,122,,neutral,neutralthreat,has_threat
sub14,28,3693,1,1,Node8,picture5.jpg,2,neutral,2,neutral,1,threat,1,neutral,211,,neutral,threatneutral,has_threat
sub14,29,9331,1,2,Node1,picture4.jpg,1,neutral,2,threat,1,neutral,2,neutral,212,,neutral,threatneutral,has_threat
sub14,30,2732,0,2,Node4,picture4.jpg,1,threat,1,neutral,1,threat,2,neutral,112,,neutral,neutralthreat,has_threat
sub14,31,6639,1,3,Node2,picture6.jpg,1,neutral,2,threat,2,threat,1,neutral,221,,neutral,threatthreat,has_threat
sub14,32,5826,1,1,Node4,picture4.jpg,1,threat,1,threat,2,neutral,2,neutral,122,,threat,neutralneutral,no_threat
sub14,33,2817,1,3,Node3,picture2.jpg,1,threat,2,threat,2,neutral,1,threat,221,,threat,threatneutral,has_threat
sub14,34,3178,1,3,Node1,picture4.jpg,1,neutral,2,neutral,2,threat,1,neutral,221,,neutral,neutralthreat,has_threat
sub14,35,5747,1,2,Node4,picture4.jpg,1,threat,2,neutral,1,threat,2,neutral,212,,threat,neutralneutral,no_threat
sub14,36,5356,1,2,Node3,picture2.jpg,1,threat,2,threat,1,threat,2,neutral,212,,threat,threatneutral,has_threat
sub14,37,9893,1,1,Node4,picture4.jpg,1,threat,1,threat,2,neutral,2,neutral,122,,threat,neutralneutral,no_threat
sub14,38,7765,1,3,Node1,picture4.jpg,1,neutral,2,threat,2,neutral,1,neutral,221,,neutral,threatneutral,has_threat
sub14,39,9579,0,3,Node2,picture6.jpg,1,neutral,2,neutral,1,threat,1,neutral,211,,neutral,threatneutral,has_threat
sub14,40,7570,1,1,Node3,picture2.jpg,1,threat,1,threat,2,threat,2,neutral,122,,threat,threatneutral,has_threat
sub14,41,2885,1,2,Node2,picture6.jpg,1,neutral,2,threat,1,neutral,2,threat,212,,neutral,threatthreat,has_threat
sub14,42,4200,1,2,Node10,picture1.jpg,2,threat,1,neutral,2,threat,1,threat,121,,threat,neutralthreat,has_threat
sub14,43,4623,1,2,Node9,picture3.jpg,2,threat,1,threat,2,threat,1,neutral,121,,threat,threatneutral,has_threat
sub14,44,3754,1,3,Node3,picture2.jpg,1,threat,2,neutral,2,threat,1,threat,221,,threat,neutralthreat,has_threat
sub14,45,3857,1,2,Node4,picture4.jpg,1,threat,2,neutral,1,threat,2,neutral,212,,threat,neutralneutral,no_threat
sub14,46,5246,1,2,Node2,picture6.jpg,1,neutral,2,threat,1,neutral,2,threat,212,,neutral,threatthreat,has_threat
sub14,47,4882,1,1,Node9,picture3.jpg,2,threat,2,threat,1,threat,1,neutral,211,,threat,threatneutral,has_threat
sub14,48,12699,1,2,Node6,picture1.jpg,2,neutral,1,threat,2,neutral,1,neutral,121,,neutral,threatneutral,has_threat
sub15,1,2947,1,1,Node4,picture1.jpg,1,neutral,1,neutral,2,threat,2,neutral,122,,neutral,threatneutral,has_threat
sub15,2,3845,1,2,Node8,picture3.jpg,2,neutral,1,threat,2,neutral,1,neutral,121,,neutral,threatneutral,has_threat
sub15,3,2930,1,1,Node2,picture10.jpg,1,neutral,1,neutral,2,neutral,2,neutral,122,,neutral,neutralneutral,no_threat
sub15,4,3577,1,1,Node1,picture4.jpg,1,threat,1,threat,2,neutral,2,neutral,122,,threat,neutralneutral,no_threat
sub15,5,3401,1,3,Node4,picture1.jpg,1,neutral,2,threat,2,neutral,1,neutral,221,,neutral,threatneutral,has_threat
sub15,6,3066,1,1,Node8,picture3.jpg,2,neutral,2,neutral,1,threat,1,neutral,211,,neutral,threatneutral,has_threat
sub15,7,4354,1,2,Node6,picture4.jpg,2,neutral,1,neutral,2,neutral,1,neutral,121,,neutral,neutralneutral,no_threat
sub15,8,3470,1,3,Node8,picture3.jpg,2,neutral,1,threat,1,neutral,2,neutral,112,,neutral,threatneutral,has_threat
sub15,9,3133,1,3,Node4,picture1.jpg,1,neutral,2,neutral,2,threat,1,neutral,221,,neutral,neutralthreat,has_threat
sub15,10,3871,1,2,Node10,picture7.jpg,2,neutral,1,threat,2,neutral,1,neutral,121,,neutral,threatneutral,has_threat
sub15,11,3209,0,2,Node2,picture10.jpg,1,neutral,2,neutral,1,neutral,1,threat,211,,neutral,neutralthreat,has_threat
sub15,12,5081,1,1,Node6,picture4.jpg,2,neutral,2,neutral,1,neutral,1,neutral,211,,neutral,neutralneutral,no_threat
sub15,13,2843,1,3,Node10,picture7.jpg,2,neutral,1,neutral,1,threat,2,neutral,112,,neutral,neutralthreat,has_threat
sub15,14,2306,1,3,Node9,picture3.jpg,2,threat,1,threat,1,threat,2,threat,112,,threat,threatthreat,has_threat
sub15,15,2439,1,2,Node8,picture3.jpg,2,neutral,1,neutral,2,neutral,1,threat,121,,neutral,neutralthreat,has_threat
sub15,16,2187,1,1,Node1,picture4.jpg,1,threat,1,threat,2,neutral,2,neutral,122,,threat,neutralneutral,no_threat
sub15,17,3207,1,2,Node2,picture10.jpg,1,neutral,2,neutral,1,neutral,2,neutral,212,,neutral,neutralneutral,no_threat
sub15,18,3255,1,2,Node3,picture1.jpg,1,threat,2,neutral,1,threat,2,threat,212,,threat,neutralthreat,has_threat
sub15,19,3184,1,2,Node10,picture7.jpg,2,neutral,1,neutral,2,neutral,1,threat,121,,neutral,neutralthreat,has_threat
sub15,20,3002,1,2,Node6,picture4.jpg,2,neutral,1,neutral,2,neutral,1,neutral,121,,neutral,neutralneutral,no_threat
sub15,21,6174,1,1,Node9,picture3.jpg,2,threat,2,threat,1,threat,1,threat,211,,threat,threatthreat,has_threat
sub15,22,2100,1,3,Node6,picture4.jpg,2,neutral,1,neutral,1,neutral,2,neutral,112,,neutral,neutralneutral,no_threat
sub15,23,2645,1,1,Node10,picture7.jpg,2,neutral,2,neutral,1,threat,1,neutral,211,,neutral,threatneutral,has_threat
sub15,24,2885,1,1,Node6,picture4.jpg,2,neutral,2,neutral,1,neutral,1,neutral,211,,neutral,neutralneutral,no_threat
sub15,25,2859,1,2,Node9,picture3.jpg,2,threat,1,threat,2,threat,1,threat,121,,threat,threatthreat,has_threat
sub15,26,2467,1,1,Node2,picture10.jpg,1,neutral,1,neutral,2,neutral,2,neutral,122,,neutral,neutralneutral,no_threat
sub15,27,2767,1,2,Node1,picture4.jpg,1,threat,2,neutral,1,threat,2,neutral,212,,threat,neutralneutral,no_threat
sub15,28,4010,1,1,Node3,picture1.jpg,1,threat,1,threat,2,neutral,2,threat,122,,threat,neutralthreat,has_threat
sub15,29,3117,1,2,Node2,picture10.jpg,1,neutral,2,neutral,1,neutral,2,neutral,212,,neutral,neutralneutral,no_threat
sub15,30,2199,1,2,Node1,picture4.jpg,1,threat,2,neutral,1,threat,2,neutral,212,,threat,neutralneutral,no_threat
sub15,31,1890,1,3,Node2,picture10.jpg,1,neutral,2,neutral,2,neutral,1,neutral,221,,neutral,neutralneutral,no_threat
sub15,32,2545,1,2,Node9,picture3.jpg,2,threat,1,threat,2,threat,1,threat,121,,threat,threatthreat,has_threat
sub15,33,2515,1,3,Node6,picture4.jpg,2,neutral,1,neutral,1,neutral,2,neutral,112,,neutral,neutralneutral,no_threat
sub15,34,2521,0,2,Node10,picture7.jpg,2,neutral,2,threat,2,neutral,1,threat,221,,threat,threatneutral,has_threat
sub15,35,2659,1,1,Node10,picture7.jpg,2,neutral,2,neutral,1,neutral,1,threat,211,,neutral,neutralthreat,has_threat
sub15,36,2443,1,1,Node9,picture3.jpg,2,threat,2,threat,1,threat,1,threat,211,,threat,threatthreat,has_threat
sub15,37,2651,1,3,Node10,picture7.jpg,2,neutral,1,threat,1,neutral,2,neutral,112,,neutral,threatneutral,has_threat
sub15,38,2756,1,3,Node9,picture3.jpg,2,threat,1,threat,1,threat,2,threat,112,,threat,threatthreat,has_threat
sub15,39,3174,1,3,Node1,picture4.jpg,1,threat,2,neutral,2,neutral,1,threat,221,,threat,neutralneutral,no_threat
sub15,40,3376,1,2,Node3,picture1.jpg,1,threat,2,threat,1,threat,2,neutral,212,,threat,threatneutral,has_threat
sub15,41,2505,1,3,Node1,picture4.jpg,1,threat,2,neutral,2,neutral,1,threat,221,,threat,neutralneutral,no_threat
sub15,42,6232,1,1,Node3,picture1.jpg,1,threat,1,threat,2,threat,2,neutral,122,,threat,threatneutral,has_threat
sub15,43,2372,1,2,Node4,picture1.jpg,1,neutral,2,neutral,1,neutral,2,threat,212,,neutral,neutralthreat,has_threat
sub15,44,3713,1,3,Node8,picture3.jpg,2,neutral,1,neutral,1,threat,2,neutral,112,,neutral,neutralthreat,has_threat
sub15,45,2185,1,3,Node2,picture10.jpg,1,neutral,2,neutral,2,neutral,1,neutral,221,,neutral,neutralneutral,no_threat
sub15,46,2234,1,2,Node4,picture1.jpg,1,neutral,2,threat,1,neutral,2,neutral,212,,neutral,threatneutral,has_threat
sub15,47,3606,1,3,Node3,picture1.jpg,1,threat,2,neutral,2,threat,1,threat,221,,threat,neutralthreat,has_threat
sub15,48,2295,1,1,Node4,picture1.jpg,1,neutral,1,neutral,2,neutral,2,threat,122,,neutral,neutralthreat,has_threat
sub16,1,7147,1,3,Node9,picture8.jpg,2,neutral,1,neutral,1,neutral,2,neutral,112,,neutral,neutralneutral,no_threat
sub16,2,5566,1,2,Node6,picture10.jpg,2,neutral,1,neutral,2,neutral,1,threat,121,,neutral,neutralthreat,has_threat
sub16,3,4999,1,1,Node8,picture1.jpg,2,threat,2,threat,1,threat,1,neutral,211,,threat,threatneutral,has_threat
sub16,4,3708,1,3,Node6,picture10.jpg,2,neutral,1,threat,1,neutral,2,neutral,112,,neutral,threatneutral,has_threat
sub16,5,3094,1,3,Node4,picture4.jpg,1,neutral,2,threat,2,neutral,1,neutral,221,,neutral,threatneutral,has_threat
sub16,6,5262,1,2,Node3,picture2.jpg,1,threat,2,neutral,1,threat,2,threat,212,,threat,neutralthreat,has_threat
sub16,7,4873,1,1,Node4,picture4.jpg,1,neutral,1,neutral,2,threat,2,neutral,122,,neutral,threatneutral,has_threat
sub16,8,8161,1,2,Node3,picture2.jpg,1,threat,2,threat,1,threat,2,neutral,212,,threat,threatneutral,has_threat
sub16,9,4290,1,1,Node9,picture8.jpg,2,neutral,2,neutral,1,neutral,1,neutral,211,,neutral,neutralneutral,no_threat
sub16,10,5244,1,2,Node10,picture3.jpg,2,neutral,1,threat,2,neutral,1,neutral,121,,neutral,threatneutral,has_threat
sub16,11,3421,1,3,Node3,picture2.jpg,1,threat,2,neutral,2,threat,1,threat,221,,threat,neutralthreat,has_threat
sub16,12,4514,1,1,Node6,picture10.jpg,2,neutral,2,neutral,1,neutral,1,threat,211,,neutral,neutralthreat,has_threat
sub16,13,4550,1,1,Node10,picture3.jpg,2,neutral,2,neutral,1,threat,1,neutral,211,,neutral,threatneutral,has_threat
sub16,14,4501,1,2,Node9,picture8.jpg,2,neutral,1,neutral,2,neutral,1,neutral,121,,neutral,neutralneutral,no_threat
sub16,15,7529,1,1,Node10,picture3.jpg,2,neutral,2,neutral,1,neutral,1,threat,211,,neutral,neutralthreat,has_threat
sub16,16,4585,1,1,Node3,picture2.jpg,1,threat,1,threat,2,neutral,2,threat,122,,threat,neutralthreat,has_threat
sub16,17,2614,1,2,Node8,picture1.jpg,2,threat,1,neutral,2,threat,1,threat,121,,threat,neutralthreat,has_threat
sub16,18,4966,1,2,Node9,picture8.jpg,2,neutral,1,neutral,2,neutral,1,neutral,121,,neutral,neutralneutral,no_threat
sub16,19,2144,1,3,Node8,picture1.jpg,2,threat,1,neutral,1,threat,2,threat,112,,threat,neutralthreat,has_threat
sub16,20,5563,1,1,Node1,picture9.jpg,1,neutral,1,neutral,2,neutral,2,neutral,122,,neutral,neutralneutral,no_threat
sub16,21,4664,1,2,Node2,picture3.jpg,1,threat,2,neutral,1,threat,2,threat,212,,threat,neutralthreat,has_threat
sub16,22,2981,1,3,Node1,picture9.jpg,1,neutral,2,neutral,2,neutral,1,neutral,221,,neutral,neutralneutral,no_threat
sub16,23,2635,1,1,Node4,picture4.jpg,1,neutral,1,neutral,2,neutral,2,threat,122,,neutral,neutralthreat,has_threat
sub16,24,3929,1,1,Node2,picture3.jpg,1,threat,1,threat,2,threat,2,neutral,122,,threat,threatneutral,has_threat
sub16,25,2498,1,2,Node4,picture4.jpg,1,neutral,2,threat,1,neutral,2,neutral,212,,neutral,threatneutral,has_threat
sub16,26,8014,1,3,Node2,picture3.jpg,1,threat,2,neutral,2,threat,1,threat,221,,threat,neutralthreat,has_threat
sub16,27,3167,1,3,Node9,picture8.jpg,2,neutral,1,neutral,1,neutral,2,neutral,112,,neutral,neutralneutral,no_threat
sub16,28,2973,1,3,Node4,picture4.jpg,1,neutral,2,neutral,2,threat,1,neutral,221,,neutral,neutralthreat,has_threat
sub16,29,2380,1,3,Node1,picture9.jpg,1,neutral,2,neutral,2,neutral,1,neutral,221,,neutral,neutralneutral,no_threat
sub16,30,2149,1,3,Node8,picture1.jpg,2,threat,1,threat,1,neutral,2,threat,112,,threat,threatneutral,has_threat
sub16,31,8342,1,1,Node9,picture8.jpg,2,neutral,2,neutral,1,neutral,1,neutral,211,,neutral,neutralneutral,no_threat
sub16,32,5441,1,3,Node10,picture3.jpg,2,neutral,1,threat,1,neutral,2,neutral,112,,neutral,threatneutral,has_threat
sub16,33,2303,1,3,Node2,picture3.jpg,1,threat,2,threat,2,neutral,1,threat,221,,threat,threatneutral,has_threat
sub16,34,5161,1,2,Node4,picture4.jpg,1,neutral,2,neutral,1,neutral,2,threat,212,,neutral,neutralthreat,has_threat
sub16,35,3196,1,2,Node2,picture3.jpg,1,threat,2,threat,1,threat,2,neutral,212,,threat,threatneutral,has_threat
sub16,36,10033,1,2,Node1,picture9.jpg,1,neutral,2,neutral,1,neutral,2,neutral,212,,neutral,neutralneutral,no_threat
sub16,37,4161,1,3,Node6,picture10.jpg,2,neutral,1,neutral,1,threat,2,neutral,112,,neutral,neutralthreat,has_threat
sub16,38,3357,1,3,Node3,picture2.jpg,1,threat,2,threat,2,neutral,1,threat,221,,threat,threatneutral,has_threat
sub16,39,9042,1,2,Node10,picture3.jpg,2,neutral,1,neutral,2,neutral,1,threat,121,,neutral,neutralthreat,has_threat
sub16,40,3775,1,1,Node6,picture10.jpg,2,neutral,2,neutral,1,threat,1,neutral,211,,neutral,threatneutral,has_threat
sub16,41,6764,1,1,Node3,picture2.jpg,1,threat,1,threat,2,threat,2,neutral,122,,threat,threatneutral,has_threat
sub16,42,12805,1,3,Node10,picture3.jpg,2,neutral,1,neutral,1,threat,2,neutral,112,,neutral,neutralthreat,has_threat
sub16,43,8465,1,2,Node8,picture1.jpg,2,threat,1,threat,2,threat,1,neutral,121,,threat,threatneutral,has_threat
sub16,44,3673,1,2,Node1,picture9.jpg,1,neutral,2,neutral,1,neutral,2,neutral,212,,neutral,neutralneutral,no_threat
sub16,45,4199,1,2,Node6,picture10.jpg,2,neutral,1,threat,2,neutral,1,neutral,121,,neutral,threatneutral,has_threat
sub16,46,5031,1,1,Node8,picture1.jpg,2,threat,2,threat,1,neutral,1,threat,211,,threat,neutralthreat,has_threat
sub16,47,2393,1,1,Node1,picture9.jpg,1,neutral,1,neutral,2,neutral,2,neutral,122,,neutral,neutralneutral,no_threat
sub16,48,4567,1,1,Node2,picture3.jpg,1,threat,1,threat,2,neutral,2,threat,122,,threat,neutralthreat,has_threat
sub17,1,2374,1,1,Node2,picture7.jpg,1,neutral,1,neutral,2,neutral,2,threat,122,,neutral,neutralthreat,has_threat
sub17,2,3196,1,3,Node4,picture3.jpg,1,threat,2,neutral,2,threat,1,threat,221,,threat,neutralthreat,has_threat
sub17,3,3386,1,1,Node1,picture2.jpg,1,neutral,1,neutral,2,neutral,2,threat,122,,neutral,neutralthreat,has_threat
sub17,4,3006,1,2,Node9,picture2.jpg,2,threat,1,neutral,2,threat,1,threat,121,,threat,neutralthreat,has_threat
sub17,5,1779,1,1,Node6,picture6.jpg,2,neutral,2,neutral,1,threat,1,neutral,211,,neutral,threatneutral,has_threat
sub17,6,4001,1,1,Node3,picture4.jpg,1,threat,1,threat,2,threat,2,neutral,122,,threat,threatneutral,has_threat
sub17,7,1993,1,2,Node8,picture9.jpg,2,neutral,1,neutral,2,neutral,1,threat,121,,neutral,neutralthreat,has_threat
sub17,8,2363,0,1,Node9,picture2.jpg,2,threat,2,threat,1,threat,2,neutral,212,,threat,threatneutral,has_threat
sub17,9,5853,1,1,Node4,picture3.jpg,1,threat,1,threat,2,threat,2,neutral,122,,threat,threatneutral,has_threat
sub17,10,2027,1,1,Node9,picture2.jpg,2,threat,2,threat,1,threat,1,neutral,211,,threat,threatneutral,has_threat
sub17,11,3524,1,1,Node6,picture6.jpg,2,neutral,2,neutral,1,neutral,1,threat,211,,neutral,neutralthreat,has_threat
sub17,12,2544,1,2,Node9,picture2.jpg,2,threat,1,threat,2,threat,1,neutral,121,,threat,threatneutral,has_threat
sub17,13,1774,0,2,Node1,picture2.jpg,1,neutral,2,neutral,1,neutral,1,threat,211,,neutral,neutralthreat,has_threat
sub17,14,5564,1,3,Node6,picture6.jpg,2,neutral,1,threat,1,neutral,2,neutral,112,,neutral,threatneutral,has_threat
sub17,15,2716,1,1,Node2,picture7.jpg,1,neutral,1,neutral,2,threat,2,neutral,122,,neutral,threatneutral,has_threat
sub17,16,3040,1,3,Node3,picture4.jpg,1,threat,2,threat,2,neutral,1,threat,221,,threat,threatneutral,has_threat
sub17,17,3545,1,2,Node1,picture2.jpg,1,neutral,2,neutral,1,neutral,2,threat,212,,neutral,neutralthreat,has_threat
sub17,18,3256,1,2,Node6,picture6.jpg,2,neutral,1,neutral,2,neutral,1,threat,121,,neutral,neutralthreat,has_threat
sub17,19,3617,1,3,Node2,picture7.jpg,1,neutral,2,threat,2,neutral,1,neutral,221,,neutral,threatneutral,has_threat
sub17,20,2557,1,2,Node8,picture9.jpg,2,neutral,1,threat,2,neutral,1,neutral,121,,neutral,threatneutral,has_threat
sub17,21,9627,1,3,Node4,picture3.jpg,1,threat,2,threat,2,neutral,1,threat,221,,threat,threatneutral,has_threat
sub17,22,2425,1,3,Node10,picture8.jpg,2,neutral,1,neutral,1,neutral,2,neutral,112,,neutral,neutralneutral,no_threat
sub17,23,3231,1,2,Node4,picture3.jpg,1,threat,2,neutral,1,threat,2,threat,212,,threat,neutralthreat,has_threat
sub17,24,3209,1,2,Node10,picture8.jpg,2,neutral,1,neutral,2,neutral,1,neutral,121,,neutral,neutralneutral,no_threat
sub17,25,2245,1,2,Node6,picture6.jpg,2,neutral,1,threat,2,neutral,1,neutral,121,,neutral,threatneutral,has_threat
sub17,26,2969,1,1,Node9,picture2.jpg,2,threat,2,threat,1,neutral,1,threat,211,,threat,neutralthreat,has_threat
sub17,27,2045,1,3,Node10,picture8.jpg,2,neutral,1,neutral,1,neutral,2,neutral,112,,neutral,neutralneutral,no_threat
sub17,28,4027,1,3,Node1,picture2.jpg,1,neutral,2,threat,2,neutral,1,neutral,221,,neutral,threatneutral,has_threat
sub17,29,4184,1,3,Node6,picture6.jpg,2,neutral,1,neutral,1,threat,2,neutral,112,,neutral,neutralthreat,has_threat
sub17,30,3530,1,1,Node10,picture8.jpg,2,neutral,2,neutral,1,neutral,1,neutral,211,,neutral,neutralneutral,no_threat
sub17,31,2358,1,2,Node4,picture3.jpg,1,threat,2,threat,1,threat,2,neutral,212,,threat,threatneutral,has_threat
sub17,32,3709,1,3,Node3,picture4.jpg,1,threat,2,neutral,2,threat,1,threat,221,,threat,neutralthreat,has_threat
sub17,33,3842,1,2,Node2,picture7.jpg,1,neutral,2,threat,1,neutral,2,neutral,212,,neutral,threatneutral,has_threat
sub17,34,3224,1,1,Node8,picture9.jpg,2,neutral,2,neutral,1,threat,1,neutral,211,,neutral,threatneutral,has_threat
sub17,35,2547,1,2,Node3,picture4.jpg,1,threat,2,neutral,1,threat,2,threat,212,,threat,neutralthreat,has_threat
sub17,36,2941,1,2,Node1,picture2.jpg,1,neutral,2,threat,1,neutral,2,neutral,212,,neutral,threatneutral,has_threat
sub17,37,2767,1,1,Node4,picture3.jpg,1,threat,1,threat,2,neutral,2,threat,122,,threat,neutralthreat,has_threat
sub17,38,3505,1,3,Node2,picture7.jpg,1,neutral,2,neutral,2,threat,1,neutral,221,,neutral,neutralthreat,has_threat
sub17,39,4526,1,3,Node8,picture9.jpg,2,neutral,1,threat,1,neutral,2,neutral,112,,neutral,threatneutral,has_threat
sub17,40,2847,1,1,Node3,picture4.jpg,1,threat,1,threat,2,neutral,2,threat,122,,threat,neutralthreat,has_threat
sub17,41,5511,1,3,Node1,picture2.jpg,1,neutral,2,neutral,2,threat,1,neutral,221,,neutral,neutralthreat,has_threat
sub17,42,3983,0,2,Node2,picture7.jpg,1,neutral,1,threat,1,neutral,2,threat,112,,threat,threatneutral,has_threat
sub17,43,5774,1,2,Node10,picture8.jpg,2,neutral,1,neutral,2,neutral,1,neutral,121,,neutral,neutralneutral,no_threat
sub17,44,2662,1,3,Node9,picture2.jpg,2,threat,1,neutral,1,threat,2,threat,112,,threat,neutralthreat,has_threat
sub17,45,4709,1,1,Node10,picture8.jpg,2,neutral,2,neutral,1,neutral,1,neutral,211,,neutral,neutralneutral,no_threat
sub17,46,3974,1,3,Node8,picture9.jpg,2,neutral,1,neutral,1,threat,2,neutral,112,,neutral,neutralthreat,has_threat
sub17,47,2537,1,2,Node2,picture7.jpg,1,neutral,2,neutral,1,neutral,2,threat,212,,neutral,neutralthreat,has_threat
sub17,48,2829,1,1,Node1,picture2.jpg,1,neutral,1,neutral,2,threat,2,neutral,122,,neutral,threatneutral,has_threat
sub18,1,31817,0,2,Node1,picture7.jpg,1,neutral,2,threat,1,neutral,1,neutral,211,,threat,neutralneutral,no_threat
sub18,2,7342,1,3,Node6,picture8.jpg,2,neutral,1,neutral,1,threat,2,neutral,112,,neutral,neutralthreat,has_threat
sub18,3,11105,1,3,Node2,picture1.jpg,1,threat,2,threat,2,neutral,1,threat,221,,threat,threatneutral,has_threat
sub18,4,12417,1,3,Node9,picture3.jpg,2,threat,1,neutral,1,neutral,2,threat,112,,threat,neutralneutral,no_threat
sub18,5,1497621,0,2,Node8,picture4.jpg,2,neutral,1,threat,2,neutral,2,threat,122,,threat,neutralthreat,has_threat
sub18,6,449190,1,1,Node4,picture4.jpg,1,threat,1,threat,2,neutral,2,threat,122,,threat,neutralthreat,has_threat
sub18,7,11031,1,2,Node3,picture3.jpg,1,neutral,2,threat,1,neutral,2,neutral,212,,neutral,threatneutral,has_threat
sub18,8,8477,1,2,Node6,picture8.jpg,2,neutral,1,threat,2,neutral,1,neutral,121,,neutral,threatneutral,has_threat
sub18,9,5288,1,2,Node10,picture2.jpg,2,threat,1,neutral,2,threat,1,threat,121,,threat,neutralthreat,has_threat
sub18,10,14702,1,1,Node9,picture3.jpg,2,threat,2,threat,1,neutral,1,neutral,211,,threat,neutralneutral,no_threat
sub18,11,16044,1,1,Node6,picture8.jpg,2,neutral,2,neutral,1,neutral,1,threat,211,,neutral,neutralthreat,has_threat
sub18,12,16206,1,1,Node8,picture4.jpg,2,neutral,2,neutral,1,neutral,1,threat,211,,neutral,neutralthreat,has_threat
sub18,13,11604,0,3,Node3,picture3.jpg,1,neutral,1,neutral,2,threat,1,neutral,121,,threat,neutralneutral,no_threat
sub18,14,8580,1,3,Node10,picture2.jpg,2,threat,1,threat,1,neutral,2,threat,112,,threat,threatneutral,has_threat
sub18,15,14497,1,1,Node3,picture3.jpg,1,neutral,1,neutral,2,neutral,2,threat,122,,neutral,neutralthreat,has_threat
sub18,16,15230,1,1,Node2,picture1.jpg,1,threat,1,threat,2,threat,2,neutral,122,,threat,threatneutral,has_threat
sub18,17,7395,1,3,Node10,picture2.jpg,2,threat,1,neutral,1,threat,2,threat,112,,threat,neutralthreat,has_threat
sub18,18,5605,1,3,Node3,picture3.jpg,1,neutral,2,neutral,2,threat,1,neutral,221,,neutral,neutralthreat,has_threat
sub18,19,11635,1,1,Node1,picture7.jpg,1,neutral,1,neutral,2,threat,2,neutral,122,,neutral,threatneutral,has_threat
sub18,20,10725,1,3,Node4,picture4.jpg,1,threat,2,threat,2,neutral,1,threat,221,,threat,threatneutral,has_threat
sub18,21,7060,1,2,Node1,picture7.jpg,1,neutral,2,threat,1,neutral,2,neutral,212,,neutral,threatneutral,has_threat
sub18,22,7482,1,3,Node3,picture3.jpg,1,neutral,2,threat,2,neutral,1,neutral,221,,neutral,threatneutral,has_threat
sub18,23,8759,1,1,Node10,picture2.jpg,2,threat,2,threat,1,threat,1,neutral,211,,threat,threatneutral,has_threat
sub18,24,14321,1,3,Node8,picture4.jpg,2,neutral,1,threat,1,neutral,2,neutral,112,,neutral,threatneutral,has_threat
sub18,25,7368,1,3,Node1,picture7.jpg,1,neutral,2,threat,2,neutral,1,neutral,221,,neutral,threatneutral,has_threat
sub18,26,4926,1,2,Node4,picture4.jpg,1,threat,2,threat,1,threat,2,neutral,212,,threat,threatneutral,has_threat
sub18,27,8933,1,2,Node2,picture1.jpg,1,threat,2,neutral,1,threat,2,threat,212,,threat,neutralthreat,has_threat
sub18,28,20013,1,1,Node10,picture2.jpg,2,threat,2,threat,1,neutral,1,threat,211,,threat,neutralthreat,has_threat
sub18,29,11030,1,1,Node4,picture4.jpg,1,threat,1,threat,2,threat,2,neutral,122,,threat,threatneutral,has_threat
sub18,30,5172,1,2,Node2,picture1.jpg,1,threat,2,threat,1,threat,2,neutral,212,,threat,threatneutral,has_threat
sub18,31,2560,1,1,Node3,picture3.jpg,1,neutral,1,neutral,2,threat,2,neutral,122,,neutral,threatneutral,has_threat
sub18,32,6506,1,2,Node6,picture8.jpg,2,neutral,1,neutral,2,neutral,1,threat,121,,neutral,neutralthreat,has_threat
sub18,33,7911,1,2,Node10,picture2.jpg,2,threat,1,threat,2,threat,1,neutral,121,,threat,threatneutral,has_threat
sub18,34,19289,1,1,Node8,picture4.jpg,2,neutral,2,neutral,1,threat,1,neutral,211,,neutral,threatneutral,has_threat
sub18,35,10016,1,1,Node6,picture8.jpg,2,neutral,2,neutral,1,threat,1,neutral,211,,neutral,threatneutral,has_threat
sub18,36,10517,1,2,Node8,picture4.jpg,2,neutral,1,neutral,2,neutral,1,threat,121,,neutral,neutralthreat,has_threat
sub18,37,19842,1,2,Node4,picture4.jpg,1,threat,2,neutral,1,threat,2,threat,212,,threat,neutralthreat,has_threat
sub18,38,6581,1,2,Node9,picture3.jpg,2,threat,1,neutral,2,threat,1,neutral,121,,threat,neutralneutral,no_threat
sub18,39,8161,1,1,Node1,picture7.jpg,1,neutral,1,neutral,2,neutral,2,threat,122,,neutral,neutralthreat,has_threat
sub18,40,7268,1,3,Node2,picture1.jpg,1,threat,2,neutral,2,threat,1,threat,221,,threat,neutralthreat,has_threat
sub18,41,5303,1,2,Node3,picture3.jpg,1,neutral,2,neutral,1,neutral,2,threat,212,,neutral,neutralthreat,has_threat
sub18,42,8492,1,3,Node6,picture8.jpg,2,neutral,1,threat,1,neutral,2,neutral,112,,neutral,threatneutral,has_threat
sub18,43,12865,1,3,Node9,picture3.jpg,2,threat,1,neutral,1,neutral,2,threat,112,,threat,neutralneutral,no_threat
sub18,44,4797,1,2,Node1,picture7.jpg,1,neutral,2,neutral,1,neutral,2,threat,212,,neutral,neutralthreat,has_threat
sub18,45,6857,1,3,Node8,picture4.jpg,2,neutral,1,neutral,1,threat,2,neutral,112,,neutral,neutralthreat,has_threat
sub18,46,2953,1,3,Node1,picture7.jpg,1,neutral,2,neutral,2,threat,1,neutral,221,,neutral,neutralthreat,has_threat
sub18,47,4217,1,2,Node8,picture4.jpg,2,neutral,1,threat,2,neutral,1,neutral,121,,neutral,threatneutral,has_threat
sub18,48,5859,1,3,Node4,picture4.jpg,1,threat,2,neutral,2,threat,1,threat,221,,threat,neutralthreat,has_threat
sub19,1,29707,1,1,Node3,picture1.jpg,1,neutral,1,neutral,2,neutral,2,threat,122,,neutral,neutralthreat,has_threat
sub19,2,3829,1,3,Node8,picture9.jpg,2,neutral,1,neutral,1,threat,2,neutral,112,,neutral,neutralthreat,has_threat
sub19,3,2294,1,3,Node4,picture3.jpg,1,threat,2,threat,2,neutral,1,threat,221,,threat,threatneutral,has_threat
sub19,4,3716,1,2,Node2,picture7.jpg,1,neutral,2,threat,1,neutral,2,neutral,212,,neutral,threatneutral,has_threat
sub19,5,4866,1,2,Node10,picture1.jpg,2,threat,1,neutral,2,threat,1,threat,121,,threat,neutralthreat,has_threat
sub19,6,4059,1,1,Node2,picture7.jpg,1,neutral,1,neutral,2,threat,2,neutral,122,,neutral,threatneutral,has_threat
sub19,7,6428,1,3,Node10,picture1.jpg,2,threat,1,threat,1,neutral,2,threat,112,,threat,threatneutral,has_threat
sub19,8,4532,1,1,Node6,picture3.jpg,2,neutral,2,neutral,1,neutral,1,threat,211,,neutral,neutralthreat,has_threat
sub19,9,6790,1,3,Node2,picture7.jpg,1,neutral,2,threat,2,neutral,1,neutral,221,,neutral,threatneutral,has_threat
sub19,10,10035,1,2,Node10,picture1.jpg,2,threat,1,threat,2,threat,1,neutral,121,,threat,threatneutral,has_threat
sub19,11,4003,1,2,Node9,picture2.jpg,2,threat,1,neutral,2,threat,1,threat,121,,threat,neutralthreat,has_threat
sub19,12,2624,1,1,Node3,picture1.jpg,1,neutral,1,neutral,2,threat,2,neutral,122,,neutral,threatneutral,has_threat
sub19,13,3754,1,1,Node8,picture9.jpg,2,neutral,2,neutral,1,threat,1,neutral,211,,neutral,threatneutral,has_threat
sub19,14,5467,1,3,Node1,picture4.jpg,1,threat,2,threat,2,threat,1,threat,221,,threat,threatthreat,has_threat
sub19,15,3266,1,2,Node6,picture3.jpg,2,neutral,1,threat,2,neutral,1,neutral,121,,neutral,threatneutral,has_threat
sub19,16,3827,1,2,Node1,picture4.jpg,1,threat,2,threat,1,threat,2,threat,212,,threat,threatthreat,has_threat
sub19,17,3044,1,3,Node2,picture7.jpg,1,neutral,2,neutral,2,threat,1,neutral,221,,neutral,neutralthreat,has_threat
sub19,18,3547,1,3,Node3,picture1.jpg,1,neutral,2,threat,2,neutral,1,neutral,221,,neutral,threatneutral,has_threat
sub19,19,4125,1,3,Node8,picture9.jpg,2,neutral,1,threat,1,neutral,2,neutral,112,,neutral,threatneutral,has_threat
sub19,20,3892,1,1,Node10,picture1.jpg,2,threat,2,threat,1,neutral,1,threat,211,,threat,neutralthreat,has_threat
sub19,21,2618,1,1,Node9,picture2.jpg,2,threat,2,threat,1,threat,1,neutral,211,,threat,threatneutral,has_threat
sub19,22,3194,1,2,Node3,picture1.jpg,1,neutral,2,neutral,1,neutral,2,threat,212,,neutral,neutralthreat,has_threat
sub19,23,3914,1,2,Node8,picture9.jpg,2,neutral,1,neutral,2,neutral,1,threat,121,,neutral,neutralthreat,has_threat
sub19,24,2797,1,1,Node4,picture3.jpg,1,threat,1,threat,2,neutral,2,threat,122,,threat,neutralthreat,has_threat
sub19,25,6342,1,1,Node10,picture1.jpg,2,threat,2,threat,1,threat,1,neutral,211,,threat,threatneutral,has_threat
sub19,26,7475,1,1,Node6,picture3.jpg,2,neutral,2,neutral,1,threat,1,neutral,211,,neutral,threatneutral,has_threat
sub19,27,5205,1,3,Node9,picture2.jpg,2,threat,1,neutral,1,threat,2,threat,112,,threat,neutralthreat,has_threat
sub19,28,4569,1,1,Node4,picture3.jpg,1,threat,1,threat,2,threat,2,neutral,122,,threat,threatneutral,has_threat
sub19,29,7647,1,1,Node1,picture4.jpg,1,threat,1,threat,2,threat,2,threat,122,,threat,threatthreat,has_threat
sub19,30,2356,1,3,Node4,picture3.jpg,1,threat,2,neutral,2,threat,1,threat,221,,threat,neutralthreat,has_threat
sub19,31,2510,1,1,Node9,picture2.jpg,2,threat,2,threat,1,neutral,1,threat,211,,threat,neutralthreat,has_threat
sub19,32,1960,1,3,Node6,picture3.jpg,2,neutral,1,neutral,1,threat,2,neutral,112,,neutral,neutralthreat,has_threat
sub19,33,1827,1,1,Node8,picture9.jpg,2,neutral,2,neutral,1,neutral,1,threat,211,,neutral,neutralthreat,has_threat
sub19,34,3200,1,2,Node3,picture1.jpg,1,neutral,2,threat,1,neutral,2,neutral,212,,neutral,threatneutral,has_threat
sub19,35,2478,1,2,Node4,picture3.jpg,1,threat,2,neutral,1,threat,2,threat,212,,threat,neutralthreat,has_threat
sub19,36,3000,1,2,Node9,picture2.jpg,2,threat,1,threat,2,threat,1,neutral,121,,threat,threatneutral,has_threat
sub19,37,3031,1,3,Node10,picture1.jpg,2,threat,1,neutral,1,threat,2,threat,112,,threat,neutralthreat,has_threat
sub19,38,3212,1,3,Node9,picture2.jpg,2,threat,1,threat,1,neutral,2,threat,112,,threat,threatneutral,has_threat
sub19,39,3765,0,3,Node4,picture3.jpg,1,threat,1,neutral,2,neutral,1,threat,121,,neutral,neutralthreat,has_threat
sub19,40,9677,1,2,Node8,picture9.jpg,2,neutral,1,threat,2,neutral,1,neutral,121,,neutral,threatneutral,has_threat
sub19,41,1935,1,2,Node4,picture3.jpg,1,threat,2,threat,1,threat,2,neutral,212,,threat,threatneutral,has_threat
sub19,42,3111,1,1,Node1,picture4.jpg,1,threat,1,threat,2,threat,2,threat,122,,threat,threatthreat,has_threat
sub19,43,3529,1,3,Node6,picture3.jpg,2,neutral,1,threat,1,neutral,2,neutral,112,,neutral,threatneutral,has_threat
sub19,44,4143,1,2,Node1,picture4.jpg,1,threat,2,threat,1,threat,2,threat,212,,threat,threatthreat,has_threat
sub19,45,5843,1,3,Node3,picture1.jpg,1,neutral,2,neutral,2,threat,1,neutral,221,,neutral,neutralthreat,has_threat
sub19,46,3172,1,2,Node2,picture7.jpg,1,neutral,2,neutral,1,neutral,2,threat,212,,neutral,neutralthreat,has_threat
sub19,47,2227,1,3,Node1,picture4.jpg,1,threat,2,threat,2,threat,1,threat,221,,threat,threatthreat,has_threat
sub19,48,4499,1,1,Node2,picture7.jpg,1,neutral,1,neutral,2,neutral,2,threat,122,,neutral,neutralthreat,has_threat
sub20,1,9244,1,1,Node4,picture3.jpg,1,threat,1,threat,2,threat,2,threat,122,,threat,threatthreat,has_threat
sub20,2,3637,1,1,Node6,picture7.jpg,2,neutral,2,neutral,1,threat,1,neutral,211,,neutral,threatneutral,has_threat
sub20,3,2283,1,2,Node4,picture3.jpg,1,threat,2,threat,1,threat,2,threat,212,,threat,threatthreat,has_threat
sub20,4,3095,1,1,Node3,picture4.jpg,1,threat,1,threat,2,threat,2,threat,122,,threat,threatthreat,has_threat
sub20,5,2622,1,2,Node9,picture3.jpg,2,neutral,1,neutral,2,neutral,1,threat,121,,neutral,neutralthreat,has_threat
sub20,6,2181,1,3,Node2,picture9.jpg,1,neutral,2,neutral,2,threat,1,neutral,221,,neutral,neutralthreat,has_threat
sub20,7,2820,1,1,Node10,picture1.jpg,2,threat,2,threat,1,threat,1,neutral,211,,threat,threatneutral,has_threat
sub20,8,2275,1,2,Node8,picture2.jpg,2,threat,1,neutral,2,threat,1,threat,121,,threat,neutralthreat,has_threat
sub20,9,1814,0,2,Node6,picture7.jpg,2,neutral,1,neutral,2,neutral,2,neutral,122,,neutral,neutralneutral,no_threat
sub20,10,2668,1,2,Node3,picture4.jpg,1,threat,2,threat,1,threat,2,threat,212,,threat,threatthreat,has_threat
sub20,11,3421,1,1,Node9,picture3.jpg,2,neutral,2,neutral,1,threat,1,neutral,211,,neutral,threatneutral,has_threat
sub20,12,2941,1,2,Node6,picture7.jpg,2,neutral,1,neutral,2,neutral,1,threat,121,,neutral,neutralthreat,has_threat
sub20,13,1923,1,1,Node4,picture3.jpg,1,threat,1,threat,2,threat,2,threat,122,,threat,threatthreat,has_threat
sub20,14,2465,1,2,Node2,picture9.jpg,1,neutral,2,threat,1,neutral,2,neutral,212,,neutral,threatneutral,has_threat
sub20,15,1822,1,2,Node4,picture3.jpg,1,threat,2,threat,1,threat,2,threat,212,,threat,threatthreat,has_threat
sub20,16,1985,1,3,Node3,picture4.jpg,1,threat,2,threat,2,threat,1,threat,221,,threat,threatthreat,has_threat
sub20,17,4693,1,3,Node9,picture3.jpg,2,neutral,1,threat,1,neutral,2,neutral,112,,neutral,threatneutral,has_threat
sub20,18,3028,1,3,Node10,picture1.jpg,2,threat,1,neutral,1,threat,2,threat,112,,threat,neutralthreat,has_threat
sub20,19,2870,0,2,Node6,picture7.jpg,2,neutral,2,neutral,2,neutral,1,neutral,221,,neutral,neutralneutral,no_threat
sub20,20,2998,1,3,Node4,picture3.jpg,1,threat,2,threat,2,threat,1,threat,221,,threat,threatthreat,has_threat
sub20,21,2680,1,1,Node1,picture5.jpg,1,neutral,1,neutral,2,neutral,2,neutral,122,,neutral,neutralneutral,no_threat
sub20,22,2768,1,1,Node8,picture2.jpg,2,threat,2,threat,1,neutral,1,threat,211,,threat,neutralthreat,has_threat
