subject,trialCount,trialAttempt,RT,nCorrect,dragThreat,dragAcc,swappedThreat,swappedAcc,slot0Acc,slot0CurrentType,slot0CorrectType,slot0CurrentSRC,slot0CorrectSRC,slot1Acc,slot1CurrentType,slot1CorrectType,slot1CurrentSRC,slot1CorrectSRC,slot2Acc,slot2CurrentType,slot2CorrectType,slot2CurrentSRC,slot2CorrectSRC,slot3Acc,slot3CurrentType,slot3CorrectType,slot3CurrentSRC,slot3CorrectSRC,slot4Acc,slot4CurrentType,slot4CorrectType,slot4CurrentSRC,slot4CorrectSRC,slot5Acc,slot5CurrentType,slot5CorrectType,slot5CurrentSRC,slot5CorrectSRC,slot6Acc,slot6CurrentType,slot6CorrectType,slot6CurrentSRC,slot6CorrectSRC,slot7Acc,slot7CurrentType,slot7CorrectType,slot7CurrentSRC,slot7CorrectSRC,slot8Acc,slot8CurrentType,slot8CorrectType,slot8CurrentSRC,slot8CorrectSRC,slot9Acc,slot9CurrentType,slot9CorrectType,slot9CurrentSRC,slot9CorrectSRC
a273wocs111dh0,1,1,NA,NA,neutral,1,NA,NA,NA,NA,NA,NA,NA,NA,NA,NA,NA,NA,NA,NA,NA,NA,NA,NA,NA,NA,NA,NA,NA,NA,NA,NA,NA,NA,NA,NA,NA,NA,NA,NA,NA,NA,NA,NA,NA,NA,NA,NA,NA,NA,NA,NA,NA,NA,NA,NA,NA,NA
a273wocs111dh0,1,1,NA,NA,threat,0,NA,NA,NA,NA,NA,NA,NA,NA,NA,NA,NA,NA,NA,NA,NA,NA,NA,NA,NA,NA,NA,NA,NA,NA,NA,NA,NA,NA,NA,NA,NA,NA,NA,NA,NA,NA,NA,NA,NA,NA,NA,NA,NA,NA,NA,NA,NA,NA,NA,NA,NA,NA
a273wocs111dh0,1,1,NA,NA,threat,0,NA,NA,NA,NA,NA,NA,NA,NA,NA,NA,NA,NA,NA,NA,NA,NA,NA,NA,NA,NA,NA,NA,NA,NA,NA,NA,NA,NA,NA,NA,NA,NA,NA,NA,NA,NA,NA,NA,NA,NA,NA,NA,NA,NA,NA,NA,NA,NA,NA,NA,NA,NA
a273wocs111dh0,1,1,NA,NA,neutral,0,NA,NA,NA,NA,NA,NA,NA,NA,NA,NA,NA,NA,NA,NA,NA,NA,NA,NA,NA,NA,NA,NA,NA,NA,NA,NA,NA,NA,NA,NA,NA,NA,NA,NA,NA,NA,NA,NA,NA,NA,NA,NA,NA,NA,NA,NA,NA,NA,NA,NA,NA,NA
a273wocs111dh0,1,1,NA,NA,threat,0,NA,NA,NA,NA,NA,NA,NA,NA,NA,NA,NA,NA,NA,NA,NA,NA,NA,NA,NA,NA,NA,NA,NA,NA,NA,NA,NA,NA,NA,NA,NA,NA,NA,NA,NA,NA,NA,NA,NA,NA,NA,NA,NA,NA,NA,NA,NA,NA,NA,NA,NA,NA
a273wocs111dh0,1,1,NA,NA,neutral,1,NA,NA,NA,NA,NA,NA,NA,NA,NA,NA,NA,NA,NA,NA,NA,NA,NA,NA,NA,NA,NA,NA,NA,NA,NA,NA,NA,NA,NA,NA,NA,NA,NA,NA,NA,NA,NA,NA,NA,NA,NA,NA,NA,NA,NA,NA,NA,NA,NA,NA,NA,NA
a273wocs111dh0,1,1,NA,NA,threat,0,NA,NA,NA,NA,NA,NA,NA,NA,NA,NA,NA,NA,NA,NA,NA,NA,NA,NA,NA,NA,NA,NA,NA,NA,NA,NA,NA,NA,NA,NA,NA,NA,NA,NA,NA,NA,NA,NA,NA,NA,NA,NA,NA,NA,NA,NA,NA,NA,NA,NA,NA,NA
a273wocs111dh0,1,1,NA,NA,neutral,0,NA,NA,NA,NA,NA,NA,NA,NA,NA,NA,NA,NA,NA,NA,NA,NA,NA,NA,NA,NA,NA,NA,NA,NA,NA,NA,NA,NA,NA,NA,NA,NA,NA,NA,NA,NA,NA,NA,NA,NA,NA,NA,NA,NA,NA,NA,NA,NA,NA,NA,NA,NA
a273wocs111dh0,1,1,NA,NA,neutral,0,NA,NA,NA,NA,NA,NA,NA,NA,NA,NA,NA,NA,NA,NA,NA,NA,NA,NA,NA,NA,NA,NA,NA,NA,NA,NA,NA,NA,NA,NA,NA,NA,NA,NA,NA,NA,NA,NA,NA,NA,NA,NA,NA,NA,NA,NA,NA,NA,NA,NA,NA,NA
a273wocs111dh0,1,1,NA,NA,neutral,0,NA,NA,NA,NA,NA,NA,NA,NA,NA,NA,NA,NA,NA,NA,NA,NA,NA,NA,NA,NA,NA,NA,NA,NA,NA,NA,NA,NA,NA,NA,NA,NA,NA,NA,NA,NA,NA,NA,NA,NA,NA,NA,NA,NA,NA,NA,NA,NA,NA,NA,NA,NA
a273wocs111dh0,1,1,64300,2,NA,NA,NA,NA,0,neutral,threat,picture10.jpg,picture1.jpg,1,neutral,neutral,picture9.jpg,picture9.jpg,0,threat,threat,picture4.jpg,picture2.jpg,0,threat,neutral,picture2.jpg,picture5.jpg,0,threat,neutral,picture3.jpg,picture6.jpg,1,neutral,neutral,picture3.jpg,picture3.jpg,0,threat,neutral,picture1.jpg,picture4.jpg,0,neutral,threat,picture5.jpg,picture3.jpg,0,neutral,threat,picture6.jpg,picture4.jpg,0,neutral,neutral,picture4.jpg,picture10.jpg
a273wocs111dh0,1,2,64300,NA,neutral,1,threat,0,NA,NA,NA,NA,NA,NA,NA,NA,NA,NA,NA,NA,NA,NA,NA,NA,NA,NA,NA,NA,NA,NA,NA,NA,NA,NA,NA,NA,NA,NA,NA,NA,NA,NA,NA,NA,NA,NA,NA,NA,NA,NA,NA,NA,NA,NA,NA,NA,NA,NA
a273wocs111dh0,1,2,64300,NA,neutral,0,neutral,0,NA,NA,NA,NA,NA,NA,NA,NA,NA,NA,NA,NA,NA,NA,NA,NA,NA,NA,NA,NA,NA,NA,NA,NA,NA,NA,NA,NA,NA,NA,NA,NA,NA,NA,NA,NA,NA,NA,NA,NA,NA,NA,NA,NA,NA,NA,NA,NA,NA,NA
a273wocs111dh0,1,2,73163,3,NA,NA,NA,NA,0,neutral,threat,picture10.jpg,picture1.jpg,1,neutral,neutral,picture9.jpg,picture9.jpg,0,threat,threat,picture4.jpg,picture2.jpg,0,threat,neutral,picture2.jpg,picture5.jpg,0,threat,neutral,picture3.jpg,picture6.jpg,1,neutral,neutral,picture3.jpg,picture3.jpg,1,neutral,neutral,picture4.jpg,picture4.jpg,0,neutral,threat,picture6.jpg,picture3.jpg,0,neutral,threat,picture5.jpg,picture4.jpg,0,threat,neutral,picture1.jpg,picture10.jpg
a273wocs111dh0,1,3,73163,NA,threat,0,threat,0,NA,NA,NA,NA,NA,NA,NA,NA,NA,NA,NA,NA,NA,NA,NA,NA,NA,NA,NA,NA,NA,NA,NA,NA,NA,NA,NA,NA,NA,NA,NA,NA,NA,NA,NA,NA,NA,NA,NA,NA,NA,NA,NA,NA,NA,NA,NA,NA,NA,NA
a273wocs111dh0,1,3,73163,NA,threat,0,threat,0,NA,NA,NA,NA,NA,NA,NA,NA,NA,NA,NA,NA,NA,NA,NA,NA,NA,NA,NA,NA,NA,NA,NA,NA,NA,NA,NA,NA,NA,NA,NA,NA,NA,NA,NA,NA,NA,NA,NA,NA,NA,NA,NA,NA,NA,NA,NA,NA,NA,NA
a273wocs111dh0,1,3,76739,3,NA,NA,NA,NA,0,neutral,threat,picture10.jpg,picture1.jpg,1,neutral,neutral,picture9.jpg,picture9.jpg,0,threat,threat,picture3.jpg,picture2.jpg,0,threat,neutral,picture4.jpg,picture5.jpg,0,threat,neutral,picture2.jpg,picture6.jpg,1,neutral,neutral,picture3.jpg,picture3.jpg,1,neutral,neutral,picture4.jpg,picture4.jpg,0,neutral,threat,picture6.jpg,picture3.jpg,0,neutral,threat,picture5.jpg,picture4.jpg,0,threat,neutral,picture1.jpg,picture10.jpg
a273wocs111dh0,1,4,76739,NA,neutral,0,neutral,0,NA,NA,NA,NA,NA,NA,NA,NA,NA,NA,NA,NA,NA,NA,NA,NA,NA,NA,NA,NA,NA,NA,NA,NA,NA,NA,NA,NA,NA,NA,NA,NA,NA,NA,NA,NA,NA,NA,NA,NA,NA,NA,NA,NA,NA,NA,NA,NA,NA,NA
a273wocs111dh0,1,4,80699,3,NA,NA,NA,NA,0,neutral,threat,picture10.jpg,picture1.jpg,1,neutral,neutral,picture9.jpg,picture9.jpg,0,threat,threat,picture3.jpg,picture2.jpg,0,threat,neutral,picture4.jpg,picture5.jpg,0,threat,neutral,picture2.jpg,picture6.jpg,1,neutral,neutral,picture3.jpg,picture3.jpg,1,neutral,neutral,picture4.jpg,picture4.jpg,0,neutral,threat,picture5.jpg,picture3.jpg,0,neutral,threat,picture6.jpg,picture4.jpg,0,threat,neutral,picture1.jpg,picture10.jpg
a273wocs111dh0,1,5,80699,NA,threat,0,neutral,0,NA,NA,NA,NA,NA,NA,NA,NA,NA,NA,NA,NA,NA,NA,NA,NA,NA,NA,NA,NA,NA,NA,NA,NA,NA,NA,NA,NA,NA,NA,NA,NA,NA,NA,NA,NA,NA,NA,NA,NA,NA,NA,NA,NA,NA,NA,NA,NA,NA,NA
a273wocs111dh0,1,5,88563,3,NA,NA,NA,NA,0,neutral,threat,picture10.jpg,picture1.jpg,1,neutral,neutral,picture9.jpg,picture9.jpg,0,threat,threat,picture3.jpg,picture2.jpg,0,threat,neutral,picture4.jpg,picture5.jpg,0,threat,neutral,picture2.jpg,picture6.jpg,1,neutral,neutral,picture3.jpg,picture3.jpg,1,neutral,neutral,picture4.jpg,picture4.jpg,0,neutral,threat,picture5.jpg,picture3.jpg,0,threat,threat,picture1.jpg,picture4.jpg,0,neutral,neutral,picture6.jpg,picture10.jpg
a273wocs111dh0,1,6,88563,NA,neutral,0,threat,0,NA,NA,NA,NA,NA,NA,NA,NA,NA,NA,NA,NA,NA,NA,NA,NA,NA,NA,NA,NA,NA,NA,NA,NA,NA,NA,NA,NA,NA,NA,NA,NA,NA,NA,NA,NA,NA,NA,NA,NA,NA,NA,NA,NA,NA,NA,NA,NA,NA,NA
a273wocs111dh0,1,6,93026,3,NA,NA,NA,NA,0,threat,threat,picture2.jpg,picture1.jpg,1,neutral,neutral,picture9.jpg,picture9.jpg,0,threat,threat,picture3.jpg,picture2.jpg,0,threat,neutral,picture4.jpg,picture5.jpg,0,neutral,neutral,picture10.jpg,picture6.jpg,1,neutral,neutral,picture3.jpg,picture3.jpg,1,neutral,neutral,picture4.jpg,picture4.jpg,0,neutral,threat,picture5.jpg,picture3.jpg,0,threat,threat,picture1.jpg,picture4.jpg,0,neutral,neutral,picture6.jpg,picture10.jpg
a273wocs111dh0,1,7,93026,NA,threat,0,threat,0,NA,NA,NA,NA,NA,NA,NA,NA,NA,NA,NA,NA,NA,NA,NA,NA,NA,NA,NA,NA,NA,NA,NA,NA,NA,NA,NA,NA,NA,NA,NA,NA,NA,NA,NA,NA,NA,NA,NA,NA,NA,NA,NA,NA,NA,NA,NA,NA,NA,NA
a273wocs111dh0,1,7,93026,NA,threat,0,neutral,0,NA,NA,NA,NA,NA,NA,NA,NA,NA,NA,NA,NA,NA,NA,NA,NA,NA,NA,NA,NA,NA,NA,NA,NA,NA,NA,NA,NA,NA,NA,NA,NA,NA,NA,NA,NA,NA,NA,NA,NA,NA,NA,NA,NA,NA,NA,NA,NA,NA,NA
a273wocs111dh0,1,7,98923,3,NA,NA,NA,NA,0,neutral,threat,picture6.jpg,picture1.jpg,1,neutral,neutral,picture9.jpg,picture9.jpg,0,threat,threat,picture4.jpg,picture2.jpg,0,threat,neutral,picture3.jpg,picture5.jpg,0,neutral,neutral,picture10.jpg,picture6.jpg,1,neutral,neutral,picture3.jpg,picture3.jpg,1,neutral,neutral,picture4.jpg,picture4.jpg,0,neutral,threat,picture5.jpg,picture3.jpg,0,threat,threat,picture1.jpg,picture4.jpg,0,threat,neutral,picture2.jpg,picture10.jpg
a273wocs111dh0,1,8,98923,NA,threat,0,neutral,0,NA,NA,NA,NA,NA,NA,NA,NA,NA,NA,NA,NA,NA,NA,NA,NA,NA,NA,NA,NA,NA,NA,NA,NA,NA,NA,NA,NA,NA,NA,NA,NA,NA,NA,NA,NA,NA,NA,NA,NA,NA,NA,NA,NA,NA,NA,NA,NA,NA,NA
a273wocs111dh0,1,8,103458,3,NA,NA,NA,NA,0,neutral,threat,picture6.jpg,picture1.jpg,1,neutral,neutral,picture9.jpg,picture9.jpg,0,threat,threat,picture4.jpg,picture2.jpg,0,neutral,neutral,picture10.jpg,picture5.jpg,0,threat,neutral,picture3.jpg,picture6.jpg,1,neutral,neutral,picture3.jpg,picture3.jpg,1,neutral,neutral,picture4.jpg,picture4.jpg,0,neutral,threat,picture5.jpg,picture3.jpg,0,threat,threat,picture1.jpg,picture4.jpg,0,threat,neutral,picture2.jpg,picture10.jpg
a273wocs111dh0,1,9,103458,NA,threat,0,neutral,0,NA,NA,NA,NA,NA,NA,NA,NA,NA,NA,NA,NA,NA,NA,NA,NA,NA,NA,NA,NA,NA,NA,NA,NA,NA,NA,NA,NA,NA,NA,NA,NA,NA,NA,NA,NA,NA,NA,NA,NA,NA,NA,NA,NA,NA,NA,NA,NA,NA,NA
a273wocs111dh0,1,9,107570,3,NA,NA,NA,NA,0,neutral,threat,picture6.jpg,picture1.jpg,1,neutral,neutral,picture9.jpg,picture9.jpg,0,threat,threat,picture4.jpg,picture2.jpg,0,neutral,neutral,picture10.jpg,picture5.jpg,0,threat,neutral,picture3.jpg,picture6.jpg,1,neutral,neutral,picture3.jpg,picture3.jpg,1,neutral,neutral,picture4.jpg,picture4.jpg,0,threat,threat,picture2.jpg,picture3.jpg,0,threat,threat,picture1.jpg,picture4.jpg,0,neutral,neutral,picture5.jpg,picture10.jpg
a273wocs111dh0,1,10,107570,NA,threat,0,neutral,0,NA,NA,NA,NA,NA,NA,NA,NA,NA,NA,NA,NA,NA,NA,NA,NA,NA,NA,NA,NA,NA,NA,NA,NA,NA,NA,NA,NA,NA,NA,NA,NA,NA,NA,NA,NA,NA,NA,NA,NA,NA,NA,NA,NA,NA,NA,NA,NA,NA,NA
a273wocs111dh0,1,10,112378,3,NA,NA,NA,NA,0,neutral,threat,picture6.jpg,picture1.jpg,1,neutral,neutral,picture9.jpg,picture9.jpg,0,neutral,threat,picture5.jpg,picture2.jpg,0,neutral,neutral,picture10.jpg,picture5.jpg,0,threat,neutral,picture3.jpg,picture6.jpg,1,neutral,neutral,picture3.jpg,picture3.jpg,1,neutral,neutral,picture4.jpg,picture4.jpg,0,threat,threat,picture2.jpg,picture3.jpg,0,threat,threat,picture1.jpg,picture4.jpg,0,threat,neutral,picture4.jpg,picture10.jpg
a273wocs111dh0,1,11,112378,NA,neutral,1,neutral,0,NA,NA,NA,NA,NA,NA,NA,NA,NA,NA,NA,NA,NA,NA,NA,NA,NA,NA,NA,NA,NA,NA,NA,NA,NA,NA,NA,NA,NA,NA,NA,NA,NA,NA,NA,NA,NA,NA,NA,NA,NA,NA,NA,NA,NA,NA,NA,NA,NA,NA
a273wocs111dh0,1,11,112378,NA,threat,0,neutral,1,NA,NA,NA,NA,NA,NA,NA,NA,NA,NA,NA,NA,NA,NA,NA,NA,NA,NA,NA,NA,NA,NA,NA,NA,NA,NA,NA,NA,NA,NA,NA,NA,NA,NA,NA,NA,NA,NA,NA,NA,NA,NA,NA,NA,NA,NA,NA,NA,NA,NA
a273wocs111dh0,1,11,116995,5,NA,NA,NA,NA,0,threat,threat,picture3.jpg,picture1.jpg,1,neutral,neutral,picture9.jpg,picture9.jpg,0,neutral,threat,picture10.jpg,picture2.jpg,1,neutral,neutral,picture5.jpg,picture5.jpg,1,neutral,neutral,picture6.jpg,picture6.jpg,1,neutral,neutral,picture3.jpg,picture3.jpg,1,neutral,neutral,picture4.jpg,picture4.jpg,0,threat,threat,picture2.jpg,picture3.jpg,0,threat,threat,picture1.jpg,picture4.jpg,0,threat,neutral,picture4.jpg,picture10.jpg
a273wocs111dh0,1,12,116995,NA,threat,0,threat,0,NA,NA,NA,NA,NA,NA,NA,NA,NA,NA,NA,NA,NA,NA,NA,NA,NA,NA,NA,NA,NA,NA,NA,NA,NA,NA,NA,NA,NA,NA,NA,NA,NA,NA,NA,NA,NA,NA,NA,NA,NA,NA,NA,NA,NA,NA,NA,NA,NA,NA
a273wocs111dh0,1,12,121954,5,NA,NA,NA,NA,0,threat,threat,picture4.jpg,picture1.jpg,1,neutral,neutral,picture9.jpg,picture9.jpg,0,neutral,threat,picture10.jpg,picture2.jpg,1,neutral,neutral,picture5.jpg,picture5.jpg,1,neutral,neutral,picture6.jpg,picture6.jpg,1,neutral,neutral,picture3.jpg,picture3.jpg,1,neutral,neutral,picture4.jpg,picture4.jpg,0,threat,threat,picture2.jpg,picture3.jpg,0,threat,threat,picture1.jpg,picture4.jpg,0,threat,neutral,picture3.jpg,picture10.jpg
a273wocs111dh0,1,13,121954,NA,threat,0,threat,0,NA,NA,NA,NA,NA,NA,NA,NA,NA,NA,NA,NA,NA,NA,NA,NA,NA,NA,NA,NA,NA,NA,NA,NA,NA,NA,NA,NA,NA,NA,NA,NA,NA,NA,NA,NA,NA,NA,NA,NA,NA,NA,NA,NA,NA,NA,NA,NA,NA,NA
a273wocs111dh0,1,13,125322,5,NA,NA,NA,NA,0,threat,threat,picture4.jpg,picture1.jpg,1,neutral,neutral,picture9.jpg,picture9.jpg,0,neutral,threat,picture10.jpg,picture2.jpg,1,neutral,neutral,picture5.jpg,picture5.jpg,1,neutral,neutral,picture6.jpg,picture6.jpg,1,neutral,neutral,picture3.jpg,picture3.jpg,1,neutral,neutral,picture4.jpg,picture4.jpg,0,threat,threat,picture1.jpg,picture3.jpg,0,threat,threat,picture2.jpg,picture4.jpg,0,threat,neutral,picture3.jpg,picture10.jpg
a273wocs111dh0,1,14,125322,NA,threat,0,threat,1,NA,NA,NA,NA,NA,NA,NA,NA,NA,NA,NA,NA,NA,NA,NA,NA,NA,NA,NA,NA,NA,NA,NA,NA,NA,NA,NA,NA,NA,NA,NA,NA,NA,NA,NA,NA,NA,NA,NA,NA,NA,NA,NA,NA,NA,NA,NA,NA,NA,NA
a273wocs111dh0,1,14,128418,6,NA,NA,NA,NA,0,threat,threat,picture2.jpg,picture1.jpg,1,neutral,neutral,picture9.jpg,picture9.jpg,0,neutral,threat,picture10.jpg,picture2.jpg,1,neutral,neutral,picture5.jpg,picture5.jpg,1,neutral,neutral,picture6.jpg,picture6.jpg,1,neutral,neutral,picture3.jpg,picture3.jpg,1,neutral,neutral,picture4.jpg,picture4.jpg,0,threat,threat,picture1.jpg,picture3.jpg,1,threat,threat,picture4.jpg,picture4.jpg,0,threat,neutral,picture3.jpg,picture10.jpg
a273wocs111dh0,1,15,128418,NA,neutral,0,threat,0,NA,NA,NA,NA,NA,NA,NA,NA,NA,NA,NA,NA,NA,NA,NA,NA,NA,NA,NA,NA,NA,NA,NA,NA,NA,NA,NA,NA,NA,NA,NA,NA,NA,NA,NA,NA,NA,NA,NA,NA,NA,NA,NA,NA,NA,NA,NA,NA,NA,NA
a273wocs111dh0,1,15,131346,5,NA,NA,NA,NA,0,threat,threat,picture2.jpg,picture1.jpg,1,neutral,neutral,picture9.jpg,picture9.jpg,0,threat,threat,picture4.jpg,picture2.jpg,1,neutral,neutral,picture5.jpg,picture5.jpg,1,neutral,neutral,picture6.jpg,picture6.jpg,1,neutral,neutral,picture3.jpg,picture3.jpg,1,neutral,neutral,picture4.jpg,picture4.jpg,0,threat,threat,picture1.jpg,picture3.jpg,0,neutral,threat,picture10.jpg,picture4.jpg,0,threat,neutral,picture3.jpg,picture10.jpg
a273wocs111dh0,1,16,132338,5,NA,NA,NA,NA,0,threat,threat,picture2.jpg,picture1.jpg,1,neutral,neutral,picture9.jpg,picture9.jpg,0,threat,threat,picture4.jpg,picture2.jpg,1,neutral,neutral,picture5.jpg,picture5.jpg,1,neutral,neutral,picture6.jpg,picture6.jpg,1,neutral,neutral,picture3.jpg,picture3.jpg,1,neutral,neutral,picture4.jpg,picture4.jpg,0,threat,threat,picture1.jpg,picture3.jpg,0,neutral,threat,picture10.jpg,picture4.jpg,0,threat,neutral,picture3.jpg,picture10.jpg
a273wocs111dh0,1,17,136226,5,NA,NA,NA,NA,0,threat,threat,picture2.jpg,picture1.jpg,1,neutral,neutral,picture9.jpg,picture9.jpg,0,threat,threat,picture4.jpg,picture2.jpg,1,neutral,neutral,picture5.jpg,picture5.jpg,1,neutral,neutral,picture6.jpg,picture6.jpg,1,neutral,neutral,picture3.jpg,picture3.jpg,1,neutral,neutral,picture4.jpg,picture4.jpg,0,threat,threat,picture1.jpg,picture3.jpg,0,neutral,threat,picture10.jpg,picture4.jpg,0,threat,neutral,picture3.jpg,picture10.jpg
a273wocs111dh0,1,18,136226,NA,threat,0,threat,1,NA,NA,NA,NA,NA,NA,NA,NA,NA,NA,NA,NA,NA,NA,NA,NA,NA,NA,NA,NA,NA,NA,NA,NA,NA,NA,NA,NA,NA,NA,NA,NA,NA,NA,NA,NA,NA,NA,NA,NA,NA,NA,NA,NA,NA,NA,NA,NA,NA,NA
a273wocs111dh0,1,18,140858,6,NA,NA,NA,NA,0,threat,threat,picture2.jpg,picture1.jpg,1,neutral,neutral,picture9.jpg,picture9.jpg,0,threat,threat,picture4.jpg,picture2.jpg,1,neutral,neutral,picture5.jpg,picture5.jpg,1,neutral,neutral,picture6.jpg,picture6.jpg,1,neutral,neutral,picture3.jpg,picture3.jpg,1,neutral,neutral,picture4.jpg,picture4.jpg,1,threat,threat,picture3.jpg,picture3.jpg,0,neutral,threat,picture10.jpg,picture4.jpg,0,threat,neutral,picture1.jpg,picture10.jpg
a273wocs111dh0,1,19,140858,NA,threat,0,threat,1,NA,NA,NA,NA,NA,NA,NA,NA,NA,NA,NA,NA,NA,NA,NA,NA,NA,NA,NA,NA,NA,NA,NA,NA,NA,NA,NA,NA,NA,NA,NA,NA,NA,NA,NA,NA,NA,NA,NA,NA,NA,NA,NA,NA,NA,NA,NA,NA,NA,NA
a273wocs111dh0,1,19,145403,7,NA,NA,NA,NA,1,threat,threat,picture1.jpg,picture1.jpg,1,neutral,neutral,picture9.jpg,picture9.jpg,0,threat,threat,picture4.jpg,picture2.jpg,1,neutral,neutral,picture5.jpg,picture5.jpg,1,neutral,neutral,picture6.jpg,picture6.jpg,1,neutral,neutral,picture3.jpg,picture3.jpg,1,neutral,neutral,picture4.jpg,picture4.jpg,1,threat,threat,picture3.jpg,picture3.jpg,0,neutral,threat,picture10.jpg,picture4.jpg,0,threat,neutral,picture2.jpg,picture10.jpg
a273wocs111dh0,1,20,145403,NA,threat,1,neutral,0,NA,NA,NA,NA,NA,NA,NA,NA,NA,NA,NA,NA,NA,NA,NA,NA,NA,NA,NA,NA,NA,NA,NA,NA,NA,NA,NA,NA,NA,NA,NA,NA,NA,NA,NA,NA,NA,NA,NA,NA,NA,NA,NA,NA,NA,NA,NA,NA,NA,NA
a273wocs111dh0,1,20,149626,8,NA,NA,NA,NA,1,threat,threat,picture1.jpg,picture1.jpg,1,neutral,neutral,picture9.jpg,picture9.jpg,0,neutral,threat,picture10.jpg,picture2.jpg,1,neutral,neutral,picture5.jpg,picture5.jpg,1,neutral,neutral,picture6.jpg,picture6.jpg,1,neutral,neutral,picture3.jpg,picture3.jpg,1,neutral,neutral,picture4.jpg,picture4.jpg,1,threat,threat,picture3.jpg,picture3.jpg,1,threat,threat,picture4.jpg,picture4.jpg,0,threat,neutral,picture2.jpg,picture10.jpg
a273wocs111dh0,1,21,149626,NA,threat,1,neutral,1,NA,NA,NA,NA,NA,NA,NA,NA,NA,NA,NA,NA,NA,NA,NA,NA,NA,NA,NA,NA,NA,NA,NA,NA,NA,NA,NA,NA,NA,NA,NA,NA,NA,NA,NA,NA,NA,NA,NA,NA,NA,NA,NA,NA,NA,NA,NA,NA,NA,NA
a273wocs111dh0,1,21,152978,10,NA,NA,NA,NA,1,threat,threat,picture1.jpg,picture1.jpg,1,neutral,neutral,picture9.jpg,picture9.jpg,1,threat,threat,picture2.jpg,picture2.jpg,1,neutral,neutral,picture5.jpg,picture5.jpg,1,neutral,neutral,picture6.jpg,picture6.jpg,1,neutral,neutral,picture3.jpg,picture3.jpg,1,neutral,neutral,picture4.jpg,picture4.jpg,1,threat,threat,picture3.jpg,picture3.jpg,1,threat,threat,picture4.jpg,picture4.jpg,1,neutral,neutral,picture10.jpg,picture10.jpg
a273wocs111dh0,2,1,-3354,NA,neutral,0,NA,NA,NA,NA,NA,NA,NA,NA,NA,NA,NA,NA,NA,NA,NA,NA,NA,NA,NA,NA,NA,NA,NA,NA,NA,NA,NA,NA,NA,NA,NA,NA,NA,NA,NA,NA,NA,NA,NA,NA,NA,NA,NA,NA,NA,NA,NA,NA,NA,NA,NA,NA
a273wocs111dh0,2,1,-3354,NA,neutral,0,NA,NA,NA,NA,NA,NA,NA,NA,NA,NA,NA,NA,NA,NA,NA,NA,NA,NA,NA,NA,NA,NA,NA,NA,NA,NA,NA,NA,NA,NA,NA,NA,NA,NA,NA,NA,NA,NA,NA,NA,NA,NA,NA,NA,NA,NA,NA,NA,NA,NA,NA,NA
a273wocs111dh0,2,1,-3354,NA,threat,0,NA,NA,NA,NA,NA,NA,NA,NA,NA,NA,NA,NA,NA,NA,NA,NA,NA,NA,NA,NA,NA,NA,NA,NA,NA,NA,NA,NA,NA,NA,NA,NA,NA,NA,NA,NA,NA,NA,NA,NA,NA,NA,NA,NA,NA,NA,NA,NA,NA,NA,NA,NA
a273wocs111dh0,2,1,-3354,NA,threat,0,NA,NA,NA,NA,NA,NA,NA,NA,NA,NA,NA,NA,NA,NA,NA,NA,NA,NA,NA,NA,NA,NA,NA,NA,NA,NA,NA,NA,NA,NA,NA,NA,NA,NA,NA,NA,NA,NA,NA,NA,NA,NA,NA,NA,NA,NA,NA,NA,NA,NA,NA,NA
a273wocs111dh0,2,1,-3354,NA,threat,0,NA,NA,NA,NA,NA,NA,NA,NA,NA,NA,NA,NA,NA,NA,NA,NA,NA,NA,NA,NA,NA,NA,NA,NA,NA,NA,NA,NA,NA,NA,NA,NA,NA,NA,NA,NA,NA,NA,NA,NA,NA,NA,NA,NA,NA,NA,NA,NA,NA,NA,NA,NA
a273wocs111dh0,2,1,-3354,NA,threat,0,NA,NA,NA,NA,NA,NA,NA,NA,NA,NA,NA,NA,NA,NA,NA,NA,NA,NA,NA,NA,NA,NA,NA,NA,NA,NA,NA,NA,NA,NA,NA,NA,NA,NA,NA,NA,NA,NA,NA,NA,NA,NA,NA,NA,NA,NA,NA,NA,NA,NA,NA,NA
a273wocs111dh0,2,1,-3354,NA,threat,1,NA,NA,NA,NA,NA,NA,NA,NA,NA,NA,NA,NA,NA,NA,NA,NA,NA,NA,NA,NA,NA,NA,NA,NA,NA,NA,NA,NA,NA,NA,NA,NA,NA,NA,NA,NA,NA,NA,NA,NA,NA,NA,NA,NA,NA,NA,NA,NA,NA,NA,NA,NA
a273wocs111dh0,2,1,-3354,NA,neutral,0,NA,NA,NA,NA,NA,NA,NA,NA,NA,NA,NA,NA,NA,NA,NA,NA,NA,NA,NA,NA,NA,NA,NA,NA,NA,NA,NA,NA,NA,NA,NA,NA,NA,NA,NA,NA,NA,NA,NA,NA,NA,NA,NA,NA,NA,NA,NA,NA,NA,NA,NA,NA
a273wocs111dh0,2,1,-3354,NA,neutral,0,NA,NA,NA,NA,NA,NA,NA,NA,NA,NA,NA,NA,NA,NA,NA,NA,NA,NA,NA,NA,NA,NA,NA,NA,NA,NA,NA,NA,NA,NA,NA,NA,NA,NA,NA,NA,NA,NA,NA,NA,NA,NA,NA,NA,NA,NA,NA,NA,NA,NA,NA,NA
a273wocs111dh0,2,1,-3354,NA,neutral,0,NA,NA,NA,NA,NA,NA,NA,NA,NA,NA,NA,NA,NA,NA,NA,NA,NA,NA,NA,NA,NA,NA,NA,NA,NA,NA,NA,NA,NA,NA,NA,NA,NA,NA,NA,NA,NA,NA,NA,NA,NA,NA,NA,NA,NA,NA,NA,NA,NA,NA,NA,NA
a273wocs111dh0,2,1,-3354,NA,neutral,0,NA,NA,NA,NA,NA,NA,NA,NA,NA,NA,NA,NA,NA,NA,NA,NA,NA,NA,NA,NA,NA,NA,NA,NA,NA,NA,NA,NA,NA,NA,NA,NA,NA,NA,NA,NA,NA,NA,NA,NA,NA,NA,NA,NA,NA,NA,NA,NA,NA,NA,NA,NA
a273wocs111dh0,2,1,56974,1,NA,NA,NA,NA,0,neutral,threat,picture9.jpg,picture1.jpg,0,neutral,neutral,picture5.jpg,picture9.jpg,0,threat,threat,picture4.jpg,picture2.jpg,0,neutral,neutral,picture6.jpg,picture5.jpg,0,neutral,neutral,picture4.jpg,picture6.jpg,0,threat,neutral,picture1.jpg,picture3.jpg,0,threat,neutral,picture2.jpg,picture4.jpg,1,threat,threat,picture3.jpg,picture3.jpg,0,neutral,threat,picture10.jpg,picture4.jpg,0,neutral,neutral,picture3.jpg,picture10.jpg
a273wocs111dh0,2,2,56974,NA,neutral,0,neutral,0,NA,NA,NA,NA,NA,NA,NA,NA,NA,NA,NA,NA,NA,NA,NA,NA,NA,NA,NA,NA,NA,NA,NA,NA,NA,NA,NA,NA,NA,NA,NA,NA,NA,NA,NA,NA,NA,NA,NA,NA,NA,NA,NA,NA,NA,NA,NA,NA,NA,NA
a273wocs111dh0,2,2,60398,1,NA,NA,NA,NA,0,neutral,threat,picture9.jpg,picture1.jpg,0,neutral,neutral,picture5.jpg,picture9.jpg,0,threat,threat,picture4.jpg,picture2.jpg,0,neutral,neutral,picture6.jpg,picture5.jpg,0,neutral,neutral,picture3.jpg,picture6.jpg,0,threat,neutral,picture1.jpg,picture3.jpg,0,threat,neutral,picture2.jpg,picture4.jpg,1,threat,threat,picture3.jpg,picture3.jpg,0,neutral,threat,picture10.jpg,picture4.jpg,0,neutral,neutral,picture4.jpg,picture10.jpg
a273wocs111dh0,2,3,60398,NA,neutral,1,neutral,0,NA,NA,NA,NA,NA,NA,NA,NA,NA,NA,NA,NA,NA,NA,NA,NA,NA,NA,NA,NA,NA,NA,NA,NA,NA,NA,NA,NA,NA,NA,NA,NA,NA,NA,NA,NA,NA,NA,NA,NA,NA,NA,NA,NA,NA,NA,NA,NA,NA,NA
a273wocs111dh0,2,3,60398,NA,threat,0,threat,1,NA,NA,NA,NA,NA,NA,NA,NA,NA,NA,NA,NA,NA,NA,NA,NA,NA,NA,NA,NA,NA,NA,NA,NA,NA,NA,NA,NA,NA,NA,NA,NA,NA,NA,NA,NA,NA,NA,NA,NA,NA,NA,NA,NA,NA,NA,NA,NA,NA,NA
a273wocs111dh0,2,3,63382,3,NA,NA,NA,NA,0,neutral,threat,picture5.jpg,picture1.jpg,1,neutral,neutral,picture9.jpg,picture9.jpg,1,threat,threat,picture2.jpg,picture2.jpg,0,neutral,neutral,picture6.jpg,picture5.jpg,0,neutral,neutral,picture3.jpg,picture6.jpg,0,threat,neutral,picture1.jpg,picture3.jpg,0,threat,neutral,picture4.jpg,picture4.jpg,1,threat,threat,picture3.jpg,picture3.jpg,0,neutral,threat,picture10.jpg,picture4.jpg,0,neutral,neutral,picture4.jpg,picture10.jpg
a273wocs111dh0,2,4,63382,NA,threat,0,neutral,1,NA,NA,NA,NA,NA,NA,NA,NA,NA,NA,NA,NA,NA,NA,NA,NA,NA,NA,NA,NA,NA,NA,NA,NA,NA,NA,NA,NA,NA,NA,NA,NA,NA,NA,NA,NA,NA,NA,NA,NA,NA,NA,NA,NA,NA,NA,NA,NA,NA,NA
a273wocs111dh0,2,4,67261,4,NA,NA,NA,NA,0,neutral,threat,picture5.jpg,picture1.jpg,1,neutral,neutral,picture9.jpg,picture9.jpg,1,threat,threat,picture2.jpg,picture2.jpg,0,neutral,neutral,picture6.jpg,picture5.jpg,0,neutral,neutral,picture3.jpg,picture6.jpg,0,threat,neutral,picture1.jpg,picture3.jpg,1,neutral,neutral,picture4.jpg,picture4.jpg,1,threat,threat,picture3.jpg,picture3.jpg,0,neutral,threat,picture10.jpg,picture4.jpg,0,threat,neutral,picture4.jpg,picture10.jpg
a273wocs111dh0,2,5,67261,NA,neutral,0,neutral,1,NA,NA,NA,NA,NA,NA,NA,NA,NA,NA,NA,NA,NA,NA,NA,NA,NA,NA,NA,NA,NA,NA,NA,NA,NA,NA,NA,NA,NA,NA,NA,NA,NA,NA,NA,NA,NA,NA,NA,NA,NA,NA,NA,NA,NA,NA,NA,NA,NA,NA
a273wocs111dh0,2,5,69869,5,NA,NA,NA,NA,0,neutral,threat,picture5.jpg,picture1.jpg,1,neutral,neutral,picture9.jpg,picture9.jpg,1,threat,threat,picture2.jpg,picture2.jpg,0,neutral,neutral,picture3.jpg,picture5.jpg,1,neutral,neutral,picture6.jpg,picture6.jpg,0,threat,neutral,picture1.jpg,picture3.jpg,1,neutral,neutral,picture4.jpg,picture4.jpg,1,threat,threat,picture3.jpg,picture3.jpg,0,neutral,threat,picture10.jpg,picture4.jpg,0,threat,neutral,picture4.jpg,picture10.jpg
a273wocs111dh0,2,6,69869,NA,threat,0,threat,0,NA,NA,NA,NA,NA,NA,NA,NA,NA,NA,NA,NA,NA,NA,NA,NA,NA,NA,NA,NA,NA,NA,NA,NA,NA,NA,NA,NA,NA,NA,NA,NA,NA,NA,NA,NA,NA,NA,NA,NA,NA,NA,NA,NA,NA,NA,NA,NA,NA,NA
a273wocs111dh0,2,6,74502,5,NA,NA,NA,NA,0,neutral,threat,picture5.jpg,picture1.jpg,1,neutral,neutral,picture9.jpg,picture9.jpg,1,threat,threat,picture2.jpg,picture2.jpg,0,neutral,neutral,picture3.jpg,picture5.jpg,1,neutral,neutral,picture6.jpg,picture6.jpg,0,threat,neutral,picture4.jpg,picture3.jpg,1,neutral,neutral,picture4.jpg,picture4.jpg,1,threat,threat,picture3.jpg,picture3.jpg,0,neutral,threat,picture10.jpg,picture4.jpg,0,threat,neutral,picture1.jpg,picture10.jpg
a273wocs111dh0,2,7,74502,NA,neutral,0,threat,1,NA,NA,NA,NA,NA,NA,NA,NA,NA,NA,NA,NA,NA,NA,NA,NA,NA,NA,NA,NA,NA,NA,NA,NA,NA,NA,NA,NA,NA,NA,NA,NA,NA,NA,NA,NA,NA,NA,NA,NA,NA,NA,NA,NA,NA,NA,NA,NA,NA,NA
a273wocs111dh0,2,7,76990,6,NA,NA,NA,NA,1,threat,threat,picture1.jpg,picture1.jpg,1,neutral,neutral,picture9.jpg,picture9.jpg,1,threat,threat,picture2.jpg,picture2.jpg,0,neutral,neutral,picture3.jpg,picture5.jpg,1,neutral,neutral,picture6.jpg,picture6.jpg,0,threat,neutral,picture4.jpg,picture3.jpg,1,neutral,neutral,picture4.jpg,picture4.jpg,1,threat,threat,picture3.jpg,picture3.jpg,0,neutral,threat,picture10.jpg,picture4.jpg,0,neutral,neutral,picture5.jpg,picture10.jpg
a273wocs111dh0,2,8,76990,NA,neutral,1,neutral,0,NA,NA,NA,NA,NA,NA,NA,NA,NA,NA,NA,NA,NA,NA,NA,NA,NA,NA,NA,NA,NA,NA,NA,NA,NA,NA,NA,NA,NA,NA,NA,NA,NA,NA,NA,NA,NA,NA,NA,NA,NA,NA,NA,NA,NA,NA,NA,NA,NA,NA
a273wocs111dh0,2,8,79854,7,NA,NA,NA,NA,1,threat,threat,picture1.jpg,picture1.jpg,1,neutral,neutral,picture9.jpg,picture9.jpg,1,threat,threat,picture2.jpg,picture2.jpg,0,neutral,neutral,picture3.jpg,picture5.jpg,1,neutral,neutral,picture6.jpg,picture6.jpg,0,threat,neutral,picture4.jpg,picture3.jpg,1,neutral,neutral,picture4.jpg,picture4.jpg,1,threat,threat,picture3.jpg,picture3.jpg,0,neutral,threat,picture5.jpg,picture4.jpg,1,neutral,neutral,picture10.jpg,picture10.jpg
a273wocs111dh0,2,9,79854,NA,threat,1,neutral,0,NA,NA,NA,NA,NA,NA,NA,NA,NA,NA,NA,NA,NA,NA,NA,NA,NA,NA,NA,NA,NA,NA,NA,NA,NA,NA,NA,NA,NA,NA,NA,NA,NA,NA,NA,NA,NA,NA,NA,NA,NA,NA,NA,NA,NA,NA,NA,NA,NA,NA
a273wocs111dh0,2,9,82261,8,NA,NA,NA,NA,1,threat,threat,picture1.jpg,picture1.jpg,1,neutral,neutral,picture9.jpg,picture9.jpg,1,threat,threat,picture2.jpg,picture2.jpg,0,neutral,neutral,picture3.jpg,picture5.jpg,1,neutral,neutral,picture6.jpg,picture6.jpg,0,neutral,neutral,picture5.jpg,picture3.jpg,1,neutral,neutral,picture4.jpg,picture4.jpg,1,threat,threat,picture3.jpg,picture3.jpg,1,threat,threat,picture4.jpg,picture4.jpg,1,neutral,neutral,picture10.jpg,picture10.jpg
a273wocs111dh0,2,10,82261,NA,neutral,1,neutral,1,NA,NA,NA,NA,NA,NA,NA,NA,NA,NA,NA,NA,NA,NA,NA,NA,NA,NA,NA,NA,NA,NA,NA,NA,NA,NA,NA,NA,NA,NA,NA,NA,NA,NA,NA,NA,NA,NA,NA,NA,NA,NA,NA,NA,NA,NA,NA,NA,NA,NA
a273wocs111dh0,2,10,85574,10,NA,NA,NA,NA,1,threat,threat,picture1.jpg,picture1.jpg,1,neutral,neutral,picture9.jpg,picture9.jpg,1,threat,threat,picture2.jpg,picture2.jpg,1,neutral,neutral,picture5.jpg,picture5.jpg,1,neutral,neutral,picture6.jpg,picture6.jpg,1,neutral,neutral,picture3.jpg,picture3.jpg,1,neutral,neutral,picture4.jpg,picture4.jpg,1,threat,threat,picture3.jpg,picture3.jpg,1,threat,threat,picture4.jpg,picture4.jpg,1,neutral,neutral,picture10.jpg,picture10.jpg
a273wocs111dh0,3,1,-8129,NA,neutral,1,NA,NA,NA,NA,NA,NA,NA,NA,NA,NA,NA,NA,NA,NA,NA,NA,NA,NA,NA,NA,NA,NA,NA,NA,NA,NA,NA,NA,NA,NA,NA,NA,NA,NA,NA,NA,NA,NA,NA,NA,NA,NA,NA,NA,NA,NA,NA,NA,NA,NA,NA,NA
a273wocs111dh0,3,1,-8129,NA,neutral,1,NA,NA,NA,NA,NA,NA,NA,NA,NA,NA,NA,NA,NA,NA,NA,NA,NA,NA,NA,NA,NA,NA,NA,NA,NA,NA,NA,NA,NA,NA,NA,NA,NA,NA,NA,NA,NA,NA,NA,NA,NA,NA,NA,NA,NA,NA,NA,NA,NA,NA,NA,NA
a273wocs111dh0,3,1,-8129,NA,neutral,1,NA,NA,NA,NA,NA,NA,NA,NA,NA,NA,NA,NA,NA,NA,NA,NA,NA,NA,NA,NA,NA,NA,NA,NA,NA,NA,NA,NA,NA,NA,NA,NA,NA,NA,NA,NA,NA,NA,NA,NA,NA,NA,NA,NA,NA,NA,NA,NA,NA,NA,NA,NA
a273wocs111dh0,3,1,-8129,NA,threat,1,NA,NA,NA,NA,NA,NA,NA,NA,NA,NA,NA,NA,NA,NA,NA,NA,NA,NA,NA,NA,NA,NA,NA,NA,NA,NA,NA,NA,NA,NA,NA,NA,NA,NA,NA,NA,NA,NA,NA,NA,NA,NA,NA,NA,NA,NA,NA,NA,NA,NA,NA,NA
a273wocs111dh0,3,1,-8129,NA,threat,1,NA,NA,NA,NA,NA,NA,NA,NA,NA,NA,NA,NA,NA,NA,NA,NA,NA,NA,NA,NA,NA,NA,NA,NA,NA,NA,NA,NA,NA,NA,NA,NA,NA,NA,NA,NA,NA,NA,NA,NA,NA,NA,NA,NA,NA,NA,NA,NA,NA,NA,NA,NA
a273wocs111dh0,3,1,-8129,NA,neutral,1,NA,NA,NA,NA,NA,NA,NA,NA,NA,NA,NA,NA,NA,NA,NA,NA,NA,NA,NA,NA,NA,NA,NA,NA,NA,NA,NA,NA,NA,NA,NA,NA,NA,NA,NA,NA,NA,NA,NA,NA,NA,NA,NA,NA,NA,NA,NA,NA,NA,NA,NA,NA
a273wocs111dh0,3,1,-8129,NA,neutral,1,NA,NA,NA,NA,NA,NA,NA,NA,NA,NA,NA,NA,NA,NA,NA,NA,NA,NA,NA,NA,NA,NA,NA,NA,NA,NA,NA,NA,NA,NA,NA,NA,NA,NA,NA,NA,NA,NA,NA,NA,NA,NA,NA,NA,NA,NA,NA,NA,NA,NA,NA,NA
a273wocs111dh0,3,1,-8129,NA,threat,1,NA,NA,NA,NA,NA,NA,NA,NA,NA,NA,NA,NA,NA,NA,NA,NA,NA,NA,NA,NA,NA,NA,NA,NA,NA,NA,NA,NA,NA,NA,NA,NA,NA,NA,NA,NA,NA,NA,NA,NA,NA,NA,NA,NA,NA,NA,NA,NA,NA,NA,NA,NA
a273wocs111dh0,3,1,-8129,NA,neutral,1,NA,NA,NA,NA,NA,NA,NA,NA,NA,NA,NA,NA,NA,NA,NA,NA,NA,NA,NA,NA,NA,NA,NA,NA,NA,NA,NA,NA,NA,NA,NA,NA,NA,NA,NA,NA,NA,NA,NA,NA,NA,NA,NA,NA,NA,NA,NA,NA,NA,NA,NA,NA
a273wocs111dh0,3,1,-8129,NA,threat,1,NA,NA,NA,NA,NA,NA,NA,NA,NA,NA,NA,NA,NA,NA,NA,NA,NA,NA,NA,NA,NA,NA,NA,NA,NA,NA,NA,NA,NA,NA,NA,NA,NA,NA,NA,NA,NA,NA,NA,NA,NA,NA,NA,NA,NA,NA,NA,NA,NA,NA,NA,NA
a273wocs111dh0,3,1,28263,10,NA,NA,NA,NA,1,threat,threat,picture1.jpg,picture1.jpg,1,neutral,neutral,picture9.jpg,picture9.jpg,1,threat,threat,picture2.jpg,picture2.jpg,1,neutral,neutral,picture5.jpg,picture5.jpg,1,neutral,neutral,picture6.jpg,picture6.jpg,1,neutral,neutral,picture3.jpg,picture3.jpg,1,neutral,neutral,picture4.jpg,picture4.jpg,1,threat,threat,picture3.jpg,picture3.jpg,1,threat,threat,picture4.jpg,picture4.jpg,1,neutral,neutral,picture10.jpg,picture10.jpg
a273wocs111dh0,4,1,-2588,NA,neutral,1,NA,NA,NA,NA,NA,NA,NA,NA,NA,NA,NA,NA,NA,NA,NA,NA,NA,NA,NA,NA,NA,NA,NA,NA,NA,NA,NA,NA,NA,NA,NA,NA,NA,NA,NA,NA,NA,NA,NA,NA,NA,NA,NA,NA,NA,NA,NA,NA,NA,NA,NA,NA
a273wocs111dh0,4,1,-2588,NA,neutral,1,NA,NA,NA,NA,NA,NA,NA,NA,NA,NA,NA,NA,NA,NA,NA,NA,NA,NA,NA,NA,NA,NA,NA,NA,NA,NA,NA,NA,NA,NA,NA,NA,NA,NA,NA,NA,NA,NA,NA,NA,NA,NA,NA,NA,NA,NA,NA,NA,NA,NA,NA,NA
a273wocs111dh0,4,1,-2588,NA,neutral,1,NA,NA,NA,NA,NA,NA,NA,NA,NA,NA,NA,NA,NA,NA,NA,NA,NA,NA,NA,NA,NA,NA,NA,NA,NA,NA,NA,NA,NA,NA,NA,NA,NA,NA,NA,NA,NA,NA,NA,NA,NA,NA,NA,NA,NA,NA,NA,NA,NA,NA,NA,NA
a273wocs111dh0,4,1,-2588,NA,threat,1,NA,NA,NA,NA,NA,NA,NA,NA,NA,NA,NA,NA,NA,NA,NA,NA,NA,NA,NA,NA,NA,NA,NA,NA,NA,NA,NA,NA,NA,NA,NA,NA,NA,NA,NA,NA,NA,NA,NA,NA,NA,NA,NA,NA,NA,NA,NA,NA,NA,NA,NA,NA
a273wocs111dh0,4,1,-2588,NA,neutral,1,NA,NA,NA,NA,NA,NA,NA,NA,NA,NA,NA,NA,NA,NA,NA,NA,NA,NA,NA,NA,NA,NA,NA,NA,NA,NA,NA,NA,NA,NA,NA,NA,NA,NA,NA,NA,NA,NA,NA,NA,NA,NA,NA,NA,NA,NA,NA,NA,NA,NA,NA,NA
a273wocs111dh0,4,1,-2588,NA,threat,1,NA,NA,NA,NA,NA,NA,NA,NA,NA,NA,NA,NA,NA,NA,NA,NA,NA,NA,NA,NA,NA,NA,NA,NA,NA,NA,NA,NA,NA,NA,NA,NA,NA,NA,NA,NA,NA,NA,NA,NA,NA,NA,NA,NA,NA,NA,NA,NA,NA,NA,NA,NA
a273wocs111dh0,4,1,-2588,NA,threat,1,NA,NA,NA,NA,NA,NA,NA,NA,NA,NA,NA,NA,NA,NA,NA,NA,NA,NA,NA,NA,NA,NA,NA,NA,NA,NA,NA,NA,NA,NA,NA,NA,NA,NA,NA,NA,NA,NA,NA,NA,NA,NA,NA,NA,NA,NA,NA,NA,NA,NA,NA,NA
a273wocs111dh0,4,1,-2588,NA,neutral,1,NA,NA,NA,NA,NA,NA,NA,NA,NA,NA,NA,NA,NA,NA,NA,NA,NA,NA,NA,NA,NA,NA,NA,NA,NA,NA,NA,NA,NA,NA,NA,NA,NA,NA,NA,NA,NA,NA,NA,NA,NA,NA,NA,NA,NA,NA,NA,NA,NA,NA,NA,NA
a273wocs111dh0,4,1,-2588,NA,neutral,1,NA,NA,NA,NA,NA,NA,NA,NA,NA,NA,NA,NA,NA,NA,NA,NA,NA,NA,NA,NA,NA,NA,NA,NA,NA,NA,NA,NA,NA,NA,NA,NA,NA,NA,NA,NA,NA,NA,NA,NA,NA,NA,NA,NA,NA,NA,NA,NA,NA,NA,NA,NA
a273wocs111dh0,4,1,-2588,NA,threat,1,NA,NA,NA,NA,NA,NA,NA,NA,NA,NA,NA,NA,NA,NA,NA,NA,NA,NA,NA,NA,NA,NA,NA,NA,NA,NA,NA,NA,NA,NA,NA,NA,NA,NA,NA,NA,NA,NA,NA,NA,NA,NA,NA,NA,NA,NA,NA,NA,NA,NA,NA,NA
a273wocs111dh0,4,1,30573,10,NA,NA,NA,NA,1,threat,threat,picture1.jpg,picture1.jpg,1,neutral,neutral,picture9.jpg,picture9.jpg,1,threat,threat,picture2.jpg,picture2.jpg,1,neutral,neutral,picture5.jpg,picture5.jpg,1,neutral,neutral,picture6.jpg,picture6.jpg,1,neutral,neutral,picture3.jpg,picture3.jpg,1,neutral,neutral,picture4.jpg,picture4.jpg,1,threat,threat,picture3.jpg,picture3.jpg,1,threat,threat,picture4.jpg,picture4.jpg,1,neutral,neutral,picture10.jpg,picture10.jpg
a273wocs111dh0,5,1,-2721,NA,threat,1,NA,NA,NA,NA,NA,NA,NA,NA,NA,NA,NA,NA,NA,NA,NA,NA,NA,NA,NA,NA,NA,NA,NA,NA,NA,NA,NA,NA,NA,NA,NA,NA,NA,NA,NA,NA,NA,NA,NA,NA,NA,NA,NA,NA,NA,NA,NA,NA,NA,NA,NA,NA
a273wocs111dh0,5,1,-2721,NA,neutral,1,NA,NA,NA,NA,NA,NA,NA,NA,NA,NA,NA,NA,NA,NA,NA,NA,NA,NA,NA,NA,NA,NA,NA,NA,NA,NA,NA,NA,NA,NA,NA,NA,NA,NA,NA,NA,NA,NA,NA,NA,NA,NA,NA,NA,NA,NA,NA,NA,NA,NA,NA,NA
a273wocs111dh0,5,1,-2721,NA,neutral,1,NA,NA,NA,NA,NA,NA,NA,NA,NA,NA,NA,NA,NA,NA,NA,NA,NA,NA,NA,NA,NA,NA,NA,NA,NA,NA,NA,NA,NA,NA,NA,NA,NA,NA,NA,NA,NA,NA,NA,NA,NA,NA,NA,NA,NA,NA,NA,NA,NA,NA,NA,NA
a273wocs111dh0,5,1,-2721,NA,threat,1,NA,NA,NA,NA,NA,NA,NA,NA,NA,NA,NA,NA,NA,NA,NA,NA,NA,NA,NA,NA,NA,NA,NA,NA,NA,NA,NA,NA,NA,NA,NA,NA,NA,NA,NA,NA,NA,NA,NA,NA,NA,NA,NA,NA,NA,NA,NA,NA,NA,NA,NA,NA
a273wocs111dh0,5,1,-2721,NA,neutral,1,NA,NA,NA,NA,NA,NA,NA,NA,NA,NA,NA,NA,NA,NA,NA,NA,NA,NA,NA,NA,NA,NA,NA,NA,NA,NA,NA,NA,NA,NA,NA,NA,NA,NA,NA,NA,NA,NA,NA,NA,NA,NA,NA,NA,NA,NA,NA,NA,NA,NA,NA,NA
a273wocs111dh0,5,1,-2721,NA,neutral,1,NA,NA,NA,NA,NA,NA,NA,NA,NA,NA,NA,NA,NA,NA,NA,NA,NA,NA,NA,NA,NA,NA,NA,NA,NA,NA,NA,NA,NA,NA,NA,NA,NA,NA,NA,NA,NA,NA,NA,NA,NA,NA,NA,NA,NA,NA,NA,NA,NA,NA,NA,NA
a273wocs111dh0,5,1,-2721,NA,neutral,1,NA,NA,NA,NA,NA,NA,NA,NA,NA,NA,NA,NA,NA,NA,NA,NA,NA,NA,NA,NA,NA,NA,NA,NA,NA,NA,NA,NA,NA,NA,NA,NA,NA,NA,NA,NA,NA,NA,NA,NA,NA,NA,NA,NA,NA,NA,NA,NA,NA,NA,NA,NA
a273wocs111dh0,5,1,-2721,NA,threat,1,NA,NA,NA,NA,NA,NA,NA,NA,NA,NA,NA,NA,NA,NA,NA,NA,NA,NA,NA,NA,NA,NA,NA,NA,NA,NA,NA,NA,NA,NA,NA,NA,NA,NA,NA,NA,NA,NA,NA,NA,NA,NA,NA,NA,NA,NA,NA,NA,NA,NA,NA,NA
a273wocs111dh0,5,1,-2721,NA,neutral,1,NA,NA,NA,NA,NA,NA,NA,NA,NA,NA,NA,NA,NA,NA,NA,NA,NA,NA,NA,NA,NA,NA,NA,NA,NA,NA,NA,NA,NA,NA,NA,NA,NA,NA,NA,NA,NA,NA,NA,NA,NA,NA,NA,NA,NA,NA,NA,NA,NA,NA,NA,NA
a273wocs111dh0,5,1,-2721,NA,threat,1,NA,NA,NA,NA,NA,NA,NA,NA,NA,NA,NA,NA,NA,NA,NA,NA,NA,NA,NA,NA,NA,NA,NA,NA,NA,NA,NA,NA,NA,NA,NA,NA,NA,NA,NA,NA,NA,NA,NA,NA,NA,NA,NA,NA,NA,NA,NA,NA,NA,NA,NA,NA
a273wocs111dh0,5,1,29663,10,NA,NA,NA,NA,1,threat,threat,picture1.jpg,picture1.jpg,1,neutral,neutral,picture9.jpg,picture9.jpg,1,threat,threat,picture2.jpg,picture2.jpg,1,neutral,neutral,picture5.jpg,picture5.jpg,1,neutral,neutral,picture6.jpg,picture6.jpg,1,neutral,neutral,picture3.jpg,picture3.jpg,1,neutral,neutral,picture4.jpg,picture4.jpg,1,threat,threat,picture3.jpg,picture3.jpg,1,threat,threat,picture4.jpg,picture4.jpg,1,neutral,neutral,picture10.jpg,picture10.jpg
ax8nxtt8qmghc,1,1,NA,NA,threat,0,NA,NA,NA,NA,NA,NA,NA,NA,NA,NA,NA,NA,NA,NA,NA,NA,NA,NA,NA,NA,NA,NA,NA,NA,NA,NA,NA,NA,NA,NA,NA,NA,NA,NA,NA,NA,NA,NA,NA,NA,NA,NA,NA,NA,NA,NA,NA,NA,NA,NA,NA,NA
ax8nxtt8qmghc,1,1,NA,NA,threat,0,NA,NA,NA,NA,NA,NA,NA,NA,NA,NA,NA,NA,NA,NA,NA,NA,NA,NA,NA,NA,NA,NA,NA,NA,NA,NA,NA,NA,NA,NA,NA,NA,NA,NA,NA,NA,NA,NA,NA,NA,NA,NA,NA,NA,NA,NA,NA,NA,NA,NA,NA,NA
ax8nxtt8qmghc,1,1,NA,NA,neutral,0,NA,NA,NA,NA,NA,NA,NA,NA,NA,NA,NA,NA,NA,NA,NA,NA,NA,NA,NA,NA,NA,NA,NA,NA,NA,NA,NA,NA,NA,NA,NA,NA,NA,NA,NA,NA,NA,NA,NA,NA,NA,NA,NA,NA,NA,NA,NA,NA,NA,NA,NA,NA
ax8nxtt8qmghc,1,1,NA,NA,threat,0,NA,NA,NA,NA,NA,NA,NA,NA,NA,NA,NA,NA,NA,NA,NA,NA,NA,NA,NA,NA,NA,NA,NA,NA,NA,NA,NA,NA,NA,NA,NA,NA,NA,NA,NA,NA,NA,NA,NA,NA,NA,NA,NA,NA,NA,NA,NA,NA,NA,NA,NA,NA
ax8nxtt8qmghc,1,1,NA,NA,threat,0,NA,NA,NA,NA,NA,NA,NA,NA,NA,NA,NA,NA,NA,NA,NA,NA,NA,NA,NA,NA,NA,NA,NA,NA,NA,NA,NA,NA,NA,NA,NA,NA,NA,NA,NA,NA,NA,NA,NA,NA,NA,NA,NA,NA,NA,NA,NA,NA,NA,NA,NA,NA
ax8nxtt8qmghc,1,1,NA,NA,neutral,0,NA,NA,NA,NA,NA,NA,NA,NA,NA,NA,NA,NA,NA,NA,NA,NA,NA,NA,NA,NA,NA,NA,NA,NA,NA,NA,NA,NA,NA,NA,NA,NA,NA,NA,NA,NA,NA,NA,NA,NA,NA,NA,NA,NA,NA,NA,NA,NA,NA,NA,NA,NA
ax8nxtt8qmghc,1,1,NA,NA,neutral,0,NA,NA,NA,NA,NA,NA,NA,NA,NA,NA,NA,NA,NA,NA,NA,NA,NA,NA,NA,NA,NA,NA,NA,NA,NA,NA,NA,NA,NA,NA,NA,NA,NA,NA,NA,NA,NA,NA,NA,NA,NA,NA,NA,NA,NA,NA,NA,NA,NA,NA,NA,NA
ax8nxtt8qmghc,1,1,NA,NA,neutral,0,NA,NA,NA,NA,NA,NA,NA,NA,NA,NA,NA,NA,NA,NA,NA,NA,NA,NA,NA,NA,NA,NA,NA,NA,NA,NA,NA,NA,NA,NA,NA,NA,NA,NA,NA,NA,NA,NA,NA,NA,NA,NA,NA,NA,NA,NA,NA,NA,NA,NA,NA,NA
ax8nxtt8qmghc,1,1,NA,NA,neutral,0,NA,NA,NA,NA,NA,NA,NA,NA,NA,NA,NA,NA,NA,NA,NA,NA,NA,NA,NA,NA,NA,NA,NA,NA,NA,NA,NA,NA,NA,NA,NA,NA,NA,NA,NA,NA,NA,NA,NA,NA,NA,NA,NA,NA,NA,NA,NA,NA,NA,NA,NA,NA
ax8nxtt8qmghc,1,1,NA,NA,neutral,0,NA,NA,NA,NA,NA,NA,NA,NA,NA,NA,NA,NA,NA,NA,NA,NA,NA,NA,NA,NA,NA,NA,NA,NA,NA,NA,NA,NA,NA,NA,NA,NA,NA,NA,NA,NA,NA,NA,NA,NA,NA,NA,NA,NA,NA,NA,NA,NA,NA,NA,NA,NA
ax8nxtt8qmghc,1,1,31037,0,NA,NA,NA,NA,0,threat,neutral,picture1.jpg,picture9.jpg,0,threat,neutral,picture2.jpg,picture4.jpg,0,threat,threat,picture3.jpg,picture4.jpg,0,threat,threat,picture4.jpg,picture3.jpg,0,neutral,neutral,picture8.jpg,picture3.jpg,0,neutral,neutral,picture9.jpg,picture2.jpg,0,neutral,threat,picture2.jpg,picture2.jpg,0,neutral,threat,picture6.jpg,picture1.jpg,0,neutral,neutral,picture4.jpg,picture6.jpg,0,neutral,neutral,picture3.jpg,picture8.jpg
ax8nxtt8qmghc,1,2,31037,NA,neutral,0,neutral,0,NA,NA,NA,NA,NA,NA,NA,NA,NA,NA,NA,NA,NA,NA,NA,NA,NA,NA,NA,NA,NA,NA,NA,NA,NA,NA,NA,NA,NA,NA,NA,NA,NA,NA,NA,NA,NA,NA,NA,NA,NA,NA,NA,NA,NA,NA,NA,NA,NA,NA
ax8nxtt8qmghc,1,2,31037,NA,threat,0,neutral,0,NA,NA,NA,NA,NA,NA,NA,NA,NA,NA,NA,NA,NA,NA,NA,NA,NA,NA,NA,NA,NA,NA,NA,NA,NA,NA,NA,NA,NA,NA,NA,NA,NA,NA,NA,NA,NA,NA,NA,NA,NA,NA,NA,NA,NA,NA,NA,NA,NA,NA
ax8nxtt8qmghc,1,2,31037,NA,threat,0,neutral,0,NA,NA,NA,NA,NA,NA,NA,NA,NA,NA,NA,NA,NA,NA,NA,NA,NA,NA,NA,NA,NA,NA,NA,NA,NA,NA,NA,NA,NA,NA,NA,NA,NA,NA,NA,NA,NA,NA,NA,NA,NA,NA,NA,NA,NA,NA,NA,NA,NA,NA
ax8nxtt8qmghc,1,2,31037,NA,threat,0,neutral,0,NA,NA,NA,NA,NA,NA,NA,NA,NA,NA,NA,NA,NA,NA,NA,NA,NA,NA,NA,NA,NA,NA,NA,NA,NA,NA,NA,NA,NA,NA,NA,NA,NA,NA,NA,NA,NA,NA,NA,NA,NA,NA,NA,NA,NA,NA,NA,NA,NA,NA
ax8nxtt8qmghc,1,2,31037,NA,threat,0,neutral,0,NA,NA,NA,NA,NA,NA,NA,NA,NA,NA,NA,NA,NA,NA,NA,NA,NA,NA,NA,NA,NA,NA,NA,NA,NA,NA,NA,NA,NA,NA,NA,NA,NA,NA,NA,NA,NA,NA,NA,NA,NA,NA,NA,NA,NA,NA,NA,NA,NA,NA
ax8nxtt8qmghc,1,2,54211,0,NA,NA,NA,NA,0,neutral,neutral,picture3.jpg,picture9.jpg,0,neutral,neutral,picture6.jpg,picture4.jpg,0,neutral,threat,picture4.jpg,picture4.jpg,0,neutral,threat,picture9.jpg,picture3.jpg,0,neutral,neutral,picture2.jpg,picture3.jpg,0,threat,neutral,picture4.jpg,picture2.jpg,0,neutral,threat,picture8.jpg,picture2.jpg,0,threat,threat,picture2.jpg,picture1.jpg,0,threat,neutral,picture3.jpg,picture6.jpg,0,threat,neutral,picture1.jpg,picture8.jpg
ax8nxtt8qmghc,1,3,54211,NA,neutral,1,neutral,0,NA,NA,NA,NA,NA,NA,NA,NA,NA,NA,NA,NA,NA,NA,NA,NA,NA,NA,NA,NA,NA,NA,NA,NA,NA,NA,NA,NA,NA,NA,NA,NA,NA,NA,NA,NA,NA,NA,NA,NA,NA,NA,NA,NA,NA,NA,NA,NA,NA,NA
ax8nxtt8qmghc,1,3,54211,NA,neutral,0,neutral,0,NA,NA,NA,NA,NA,NA,NA,NA,NA,NA,NA,NA,NA,NA,NA,NA,NA,NA,NA,NA,NA,NA,NA,NA,NA,NA,NA,NA,NA,NA,NA,NA,NA,NA,NA,NA,NA,NA,NA,NA,NA,NA,NA,NA,NA,NA,NA,NA,NA,NA
ax8nxtt8qmghc,1,3,54211,NA,neutral,0,threat,0,NA,NA,NA,NA,NA,NA,NA,NA,NA,NA,NA,NA,NA,NA,NA,NA,NA,NA,NA,NA,NA,NA,NA,NA,NA,NA,NA,NA,NA,NA,NA,NA,NA,NA,NA,NA,NA,NA,NA,NA,NA,NA,NA,NA,NA,NA,NA,NA,NA,NA
ax8nxtt8qmghc,1,3,54211,NA,neutral,0,threat,0,NA,NA,NA,NA,NA,NA,NA,NA,NA,NA,NA,NA,NA,NA,NA,NA,NA,NA,NA,NA,NA,NA,NA,NA,NA,NA,NA,NA,NA,NA,NA,NA,NA,NA,NA,NA,NA,NA,NA,NA,NA,NA,NA,NA,NA,NA,NA,NA,NA,NA
ax8nxtt8qmghc,1,3,66825,1,NA,NA,NA,NA,1,neutral,neutral,picture9.jpg,picture9.jpg,0,threat,neutral,picture4.jpg,picture4.jpg,0,neutral,threat,picture8.jpg,picture4.jpg,0,neutral,threat,picture3.jpg,picture3.jpg,0,threat,neutral,picture1.jpg,picture3.jpg,0,neutral,neutral,picture6.jpg,picture2.jpg,0,neutral,threat,picture4.jpg,picture2.jpg,0,threat,threat,picture2.jpg,picture1.jpg,0,threat,neutral,picture3.jpg,picture6.jpg,0,neutral,neutral,picture2.jpg,picture8.jpg
ax8nxtt8qmghc,1,4,66825,NA,threat,0,neutral,0,NA,NA,NA,NA,NA,NA,NA,NA,NA,NA,NA,NA,NA,NA,NA,NA,NA,NA,NA,NA,NA,NA,NA,NA,NA,NA,NA,NA,NA,NA,NA,NA,NA,NA,NA,NA,NA,NA,NA,NA,NA,NA,NA,NA,NA,NA,NA,NA,NA,NA
ax8nxtt8qmghc,1,4,72009,1,NA,NA,NA,NA,1,neutral,neutral,picture9.jpg,picture9.jpg,0,threat,neutral,picture4.jpg,picture4.jpg,0,neutral,threat,picture8.jpg,picture4.jpg,0,neutral,threat,picture3.jpg,picture3.jpg,0,neutral,neutral,picture2.jpg,picture3.jpg,0,neutral,neutral,picture6.jpg,picture2.jpg,0,neutral,threat,picture4.jpg,picture2.jpg,0,threat,threat,picture2.jpg,picture1.jpg,0,threat,neutral,picture3.jpg,picture6.jpg,0,threat,neutral,picture1.jpg,picture8.jpg
ax8nxtt8qmghc,1,5,72009,NA,neutral,0,neutral,0,NA,NA,NA,NA,NA,NA,NA,NA,NA,NA,NA,NA,NA,NA,NA,NA,NA,NA,NA,NA,NA,NA,NA,NA,NA,NA,NA,NA,NA,NA,NA,NA,NA,NA,NA,NA,NA,NA,NA,NA,NA,NA,NA,NA,NA,NA,NA,NA,NA,NA
ax8nxtt8qmghc,1,5,74956,1,NA,NA,NA,NA,1,neutral,neutral,picture9.jpg,picture9.jpg,0,threat,neutral,picture4.jpg,picture4.jpg,0,neutral,threat,picture8.jpg,picture4.jpg,0,neutral,threat,picture3.jpg,picture3.jpg,0,neutral,neutral,picture4.jpg,picture3.jpg,0,neutral,neutral,picture6.jpg,picture2.jpg,0,neutral,threat,picture2.jpg,picture2.jpg,0,threat,threat,picture2.jpg,picture1.jpg,0,threat,neutral,picture3.jpg,picture6.jpg,0,threat,neutral,picture1.jpg,picture8.jpg
ax8nxtt8qmghc,1,6,74956,NA,threat,1,neutral,0,NA,NA,NA,NA,NA,NA,NA,NA,NA,NA,NA,NA,NA,NA,NA,NA,NA,NA,NA,NA,NA,NA,NA,NA,NA,NA,NA,NA,NA,NA,NA,NA,NA,NA,NA,NA,NA,NA,NA,NA,NA,NA,NA,NA,NA,NA,NA,NA,NA,NA
ax8nxtt8qmghc,1,6,77523,2,NA,NA,NA,NA,1,neutral,neutral,picture9.jpg,picture9.jpg,0,neutral,neutral,picture8.jpg,picture4.jpg,1,threat,threat,picture4.jpg,picture4.jpg,0,neutral,threat,picture3.jpg,picture3.jpg,0,neutral,neutral,picture4.jpg,picture3.jpg,0,neutral,neutral,picture6.jpg,picture2.jpg,0,neutral,threat,picture2.jpg,picture2.jpg,0,threat,threat,picture2.jpg,picture1.jpg,0,threat,neutral,picture3.jpg,picture6.jpg,0,threat,neutral,picture1.jpg,picture8.jpg
ax8nxtt8qmghc,1,7,77523,NA,neutral,0,neutral,0,NA,NA,NA,NA,NA,NA,NA,NA,NA,NA,NA,NA,NA,NA,NA,NA,NA,NA,NA,NA,NA,NA,NA,NA,NA,NA,NA,NA,NA,NA,NA,NA,NA,NA,NA,NA,NA,NA,NA,NA,NA,NA,NA,NA,NA,NA,NA,NA,NA,NA
ax8nxtt8qmghc,1,7,80996,2,NA,NA,NA,NA,1,neutral,neutral,picture9.jpg,picture9.jpg,0,neutral,neutral,picture3.jpg,picture4.jpg,1,threat,threat,picture4.jpg,picture4.jpg,0,neutral,threat,picture8.jpg,picture3.jpg,0,neutral,neutral,picture4.jpg,picture3.jpg,0,neutral,neutral,picture6.jpg,picture2.jpg,0,neutral,threat,picture2.jpg,picture2.jpg,0,threat,threat,picture2.jpg,picture1.jpg,0,threat,neutral,picture3.jpg,picture6.jpg,0,threat,neutral,picture1.jpg,picture8.jpg
ax8nxtt8qmghc,1,8,80996,NA,neutral,0,neutral,0,NA,NA,NA,NA,NA,NA,NA,NA,NA,NA,NA,NA,NA,NA,NA,NA,NA,NA,NA,NA,NA,NA,NA,NA,NA,NA,NA,NA,NA,NA,NA,NA,NA,NA,NA,NA,NA,NA,NA,NA,NA,NA,NA,NA,NA,NA,NA,NA,NA,NA
ax8nxtt8qmghc,1,8,84009,2,NA,NA,NA,NA,1,neutral,neutral,picture9.jpg,picture9.jpg,0,neutral,neutral,picture3.jpg,picture4.jpg,1,threat,threat,picture4.jpg,picture4.jpg,0,neutral,threat,picture4.jpg,picture3.jpg,0,neutral,neutral,picture8.jpg,picture3.jpg,0,neutral,neutral,picture6.jpg,picture2.jpg,0,neutral,threat,picture2.jpg,picture2.jpg,0,threat,threat,picture2.jpg,picture1.jpg,0,threat,neutral,picture3.jpg,picture6.jpg,0,threat,neutral,picture1.jpg,picture8.jpg
ax8nxtt8qmghc,1,9,84009,NA,neutral,0,neutral,0,NA,NA,NA,NA,NA,NA,NA,NA,NA,NA,NA,NA,NA,NA,NA,NA,NA,NA,NA,NA,NA,NA,NA,NA,NA,NA,NA,NA,NA,NA,NA,NA,NA,NA,NA,NA,NA,NA,NA,NA,NA,NA,NA,NA,NA,NA,NA,NA,NA,NA
ax8nxtt8qmghc,1,9,86928,2,NA,NA,NA,NA,1,neutral,neutral,picture9.jpg,picture9.jpg,0,neutral,neutral,picture3.jpg,picture4.jpg,1,threat,threat,picture4.jpg,picture4.jpg,0,neutral,threat,picture8.jpg,picture3.jpg,0,neutral,neutral,picture4.jpg,picture3.jpg,0,neutral,neutral,picture6.jpg,picture2.jpg,0,neutral,threat,picture2.jpg,picture2.jpg,0,threat,threat,picture2.jpg,picture1.jpg,0,threat,neutral,picture3.jpg,picture6.jpg,0,threat,neutral,picture1.jpg,picture8.jpg
ax8nxtt8qmghc,1,10,86928,NA,threat,0,neutral,1,NA,NA,NA,NA,NA,NA,NA,NA,NA,NA,NA,NA,NA,NA,NA,NA,NA,NA,NA,NA,NA,NA,NA,NA,NA,NA,NA,NA,NA,NA,NA,NA,NA,NA,NA,NA,NA,NA,NA,NA,NA,NA,NA,NA,NA,NA,NA,NA,NA,NA
ax8nxtt8qmghc,1,10,89867,3,NA,NA,NA,NA,1,neutral,neutral,picture9.jpg,picture9.jpg,0,neutral,neutral,picture3.jpg,picture4.jpg,1,threat,threat,picture4.jpg,picture4.jpg,0,threat,threat,picture1.jpg,picture3.jpg,0,neutral,neutral,picture4.jpg,picture3.jpg,0,neutral,neutral,picture6.jpg,picture2.jpg,0,neutral,threat,picture2.jpg,picture2.jpg,0,threat,threat,picture2.jpg,picture1.jpg,0,threat,neutral,picture3.jpg,picture6.jpg,1,neutral,neutral,picture8.jpg,picture8.jpg
ax8nxtt8qmghc,1,11,89867,NA,neutral,0,threat,0,NA,NA,NA,NA,NA,NA,NA,NA,NA,NA,NA,NA,NA,NA,NA,NA,NA,NA,NA,NA,NA,NA,NA,NA,NA,NA,NA,NA,NA,NA,NA,NA,NA,NA,NA,NA,NA,NA,NA,NA,NA,NA,NA,NA,NA,NA,NA,NA,NA,NA
ax8nxtt8qmghc,1,11,92949,3,NA,NA,NA,NA,1,neutral,neutral,picture9.jpg,picture9.jpg,0,neutral,neutral,picture3.jpg,picture4.jpg,1,threat,threat,picture4.jpg,picture4.jpg,0,neutral,threat,picture6.jpg,picture3.jpg,0,neutral,neutral,picture4.jpg,picture3.jpg,0,threat,neutral,picture1.jpg,picture2.jpg,0,neutral,threat,picture2.jpg,picture2.jpg,0,threat,threat,picture2.jpg,picture1.jpg,0,threat,neutral,picture3.jpg,picture6.jpg,1,neutral,neutral,picture8.jpg,picture8.jpg
ax8nxtt8qmghc,1,12,92949,NA,threat,0,neutral,0,NA,NA,NA,NA,NA,NA,NA,NA,NA,NA,NA,NA,NA,NA,NA,NA,NA,NA,NA,NA,NA,NA,NA,NA,NA,NA,NA,NA,NA,NA,NA,NA,NA,NA,NA,NA,NA,NA,NA,NA,NA,NA,NA,NA,NA,NA,NA,NA,NA,NA
ax8nxtt8qmghc,1,12,96955,3,NA,NA,NA,NA,1,neutral,neutral,picture9.jpg,picture9.jpg,0,neutral,neutral,picture3.jpg,picture4.jpg,1,threat,threat,picture4.jpg,picture4.jpg,0,threat,threat,picture2.jpg,picture3.jpg,0,neutral,neutral,picture4.jpg,picture3.jpg,0,threat,neutral,picture1.jpg,picture2.jpg,0,neutral,threat,picture2.jpg,picture2.jpg,0,neutral,threat,picture6.jpg,picture1.jpg,0,threat,neutral,picture3.jpg,picture6.jpg,1,neutral,neutral,picture8.jpg,picture8.jpg
ax8nxtt8qmghc,1,13,96955,NA,threat,1,threat,0,NA,NA,NA,NA,NA,NA,NA,NA,NA,NA,NA,NA,NA,NA,NA,NA,NA,NA,NA,NA,NA,NA,NA,NA,NA,NA,NA,NA,NA,NA,NA,NA,NA,NA,NA,NA,NA,NA,NA,NA,NA,NA,NA,NA,NA,NA,NA,NA,NA,NA
ax8nxtt8qmghc,1,13,100323,4,NA,NA,NA,NA,1,neutral,neutral,picture9.jpg,picture9.jpg,0,neutral,neutral,picture3.jpg,picture4.jpg,1,threat,threat,picture4.jpg,picture4.jpg,1,threat,threat,picture3.jpg,picture3.jpg,0,neutral,neutral,picture4.jpg,picture3.jpg,0,threat,neutral,picture1.jpg,picture2.jpg,0,neutral,threat,picture2.jpg,picture2.jpg,0,neutral,threat,picture6.jpg,picture1.jpg,0,threat,neutral,picture2.jpg,picture6.jpg,1,neutral,neutral,picture8.jpg,picture8.jpg
ax8nxtt8qmghc,1,14,100323,NA,neutral,1,neutral,1,NA,NA,NA,NA,NA,NA,NA,NA,NA,NA,NA,NA,NA,NA,NA,NA,NA,NA,NA,NA,NA,NA,NA,NA,NA,NA,NA,NA,NA,NA,NA,NA,NA,NA,NA,NA,NA,NA,NA,NA,NA,NA,NA,NA,NA,NA,NA,NA,NA,NA
ax8nxtt8qmghc,1,14,100323,NA,neutral,0,neutral,0,NA,NA,NA,NA,NA,NA,NA,NA,NA,NA,NA,NA,NA,NA,NA,NA,NA,NA,NA,NA,NA,NA,NA,NA,NA,NA,NA,NA,NA,NA,NA,NA,NA,NA,NA,NA,NA,NA,NA,NA,NA,NA,NA,NA,NA,NA,NA,NA,NA,NA
ax8nxtt8qmghc,1,14,108347,4,NA,NA,NA,NA,1,neutral,neutral,picture9.jpg,picture9.jpg,0,neutral,neutral,picture3.jpg,picture4.jpg,1,threat,threat,picture4.jpg,picture4.jpg,1,threat,threat,picture3.jpg,picture3.jpg,0,neutral,neutral,picture4.jpg,picture3.jpg,0,threat,neutral,picture1.jpg,picture2.jpg,0,neutral,threat,picture2.jpg,picture2.jpg,0,neutral,threat,picture6.jpg,picture1.jpg,0,threat,neutral,picture2.jpg,picture6.jpg,1,neutral,neutral,picture8.jpg,picture8.jpg
ax8nxtt8qmghc,1,15,114135,4,NA,NA,NA,NA,1,neutral,neutral,picture9.jpg,picture9.jpg,0,neutral,neutral,picture3.jpg,picture4.jpg,1,threat,threat,picture4.jpg,picture4.jpg,1,threat,threat,picture3.jpg,picture3.jpg,0,neutral,neutral,picture4.jpg,picture3.jpg,0,threat,neutral,picture1.jpg,picture2.jpg,0,neutral,threat,picture2.jpg,picture2.jpg,0,neutral,threat,picture6.jpg,picture1.jpg,0,threat,neutral,picture2.jpg,picture6.jpg,1,neutral,neutral,picture8.jpg,picture8.jpg
ax8nxtt8qmghc,1,16,114135,NA,neutral,1,threat,0,NA,NA,NA,NA,NA,NA,NA,NA,NA,NA,NA,NA,NA,NA,NA,NA,NA,NA,NA,NA,NA,NA,NA,NA,NA,NA,NA,NA,NA,NA,NA,NA,NA,NA,NA,NA,NA,NA,NA,NA,NA,NA,NA,NA,NA,NA,NA,NA,NA,NA
ax8nxtt8qmghc,1,16,121457,5,NA,NA,NA,NA,1,neutral,neutral,picture9.jpg,picture9.jpg,0,neutral,neutral,picture3.jpg,picture4.jpg,1,threat,threat,picture4.jpg,picture4.jpg,1,threat,threat,picture3.jpg,picture3.jpg,0,neutral,neutral,picture4.jpg,picture3.jpg,1,neutral,neutral,picture2.jpg,picture2.jpg,0,threat,threat,picture1.jpg,picture2.jpg,0,neutral,threat,picture6.jpg,picture1.jpg,0,threat,neutral,picture2.jpg,picture6.jpg,1,neutral,neutral,picture8.jpg,picture8.jpg
ax8nxtt8qmghc,1,17,121457,NA,threat,0,threat,1,NA,NA,NA,NA,NA,NA,NA,NA,NA,NA,NA,NA,NA,NA,NA,NA,NA,NA,NA,NA,NA,NA,NA,NA,NA,NA,NA,NA,NA,NA,NA,NA,NA,NA,NA,NA,NA,NA,NA,NA,NA,NA,NA,NA,NA,NA,NA,NA,NA,NA
ax8nxtt8qmghc,1,17,125059,6,NA,NA,NA,NA,1,neutral,neutral,picture9.jpg,picture9.jpg,0,neutral,neutral,picture3.jpg,picture4.jpg,1,threat,threat,picture4.jpg,picture4.jpg,1,threat,threat,picture3.jpg,picture3.jpg,0,neutral,neutral,picture4.jpg,picture3.jpg,1,neutral,neutral,picture2.jpg,picture2.jpg,1,threat,threat,picture2.jpg,picture2.jpg,0,neutral,threat,picture6.jpg,picture1.jpg,0,threat,neutral,picture1.jpg,picture6.jpg,1,neutral,neutral,picture8.jpg,picture8.jpg
ax8nxtt8qmghc,1,18,125059,NA,neutral,1,threat,1,NA,NA,NA,NA,NA,NA,NA,NA,NA,NA,NA,NA,NA,NA,NA,NA,NA,NA,NA,NA,NA,NA,NA,NA,NA,NA,NA,NA,NA,NA,NA,NA,NA,NA,NA,NA,NA,NA,NA,NA,NA,NA,NA,NA,NA,NA,NA,NA,NA,NA
ax8nxtt8qmghc,1,18,128504,8,NA,NA,NA,NA,1,neutral,neutral,picture9.jpg,picture9.jpg,0,neutral,neutral,picture3.jpg,picture4.jpg,1,threat,threat,picture4.jpg,picture4.jpg,1,threat,threat,picture3.jpg,picture3.jpg,0,neutral,neutral,picture4.jpg,picture3.jpg,1,neutral,neutral,picture2.jpg,picture2.jpg,1,threat,threat,picture2.jpg,picture2.jpg,1,threat,threat,picture1.jpg,picture1.jpg,1,neutral,neutral,picture6.jpg,picture6.jpg,1,neutral,neutral,picture8.jpg,picture8.jpg
ax8nxtt8qmghc,1,19,128504,NA,neutral,1,neutral,1,NA,NA,NA,NA,NA,NA,NA,NA,NA,NA,NA,NA,NA,NA,NA,NA,NA,NA,NA,NA,NA,NA,NA,NA,NA,NA,NA,NA,NA,NA,NA,NA,NA,NA,NA,NA,NA,NA,NA,NA,NA,NA,NA,NA,NA,NA,NA,NA,NA,NA
ax8nxtt8qmghc,1,19,179072,10,NA,NA,NA,NA,1,neutral,neutral,picture9.jpg,picture9.jpg,1,neutral,neutral,picture4.jpg,picture4.jpg,1,threat,threat,picture4.jpg,picture4.jpg,1,threat,threat,picture3.jpg,picture3.jpg,1,neutral,neutral,picture3.jpg,picture3.jpg,1,neutral,neutral,picture2.jpg,picture2.jpg,1,threat,threat,picture2.jpg,picture2.jpg,1,threat,threat,picture1.jpg,picture1.jpg,1,neutral,neutral,picture6.jpg,picture6.jpg,1,neutral,neutral,picture8.jpg,picture8.jpg
ax8nxtt8qmghc,2,1,-1388,NA,threat,1,NA,NA,NA,NA,NA,NA,NA,NA,NA,NA,NA,NA,NA,NA,NA,NA,NA,NA,NA,NA,NA,NA,NA,NA,NA,NA,NA,NA,NA,NA,NA,NA,NA,NA,NA,NA,NA,NA,NA,NA,NA,NA,NA,NA,NA,NA,NA,NA,NA,NA,NA,NA
ax8nxtt8qmghc,2,1,-1388,NA,threat,1,NA,NA,NA,NA,NA,NA,NA,NA,NA,NA,NA,NA,NA,NA,NA,NA,NA,NA,NA,NA,NA,NA,NA,NA,NA,NA,NA,NA,NA,NA,NA,NA,NA,NA,NA,NA,NA,NA,NA,NA,NA,NA,NA,NA,NA,NA,NA,NA,NA,NA,NA,NA
ax8nxtt8qmghc,2,1,-1388,NA,neutral,1,NA,NA,NA,NA,NA,NA,NA,NA,NA,NA,NA,NA,NA,NA,NA,NA,NA,NA,NA,NA,NA,NA,NA,NA,NA,NA,NA,NA,NA,NA,NA,NA,NA,NA,NA,NA,NA,NA,NA,NA,NA,NA,NA,NA,NA,NA,NA,NA,NA,NA,NA,NA
ax8nxtt8qmghc,2,1,-1388,NA,neutral,1,NA,NA,NA,NA,NA,NA,NA,NA,NA,NA,NA,NA,NA,NA,NA,NA,NA,NA,NA,NA,NA,NA,NA,NA,NA,NA,NA,NA,NA,NA,NA,NA,NA,NA,NA,NA,NA,NA,NA,NA,NA,NA,NA,NA,NA,NA,NA,NA,NA,NA,NA,NA
ax8nxtt8qmghc,2,1,-1388,NA,threat,1,NA,NA,NA,NA,NA,NA,NA,NA,NA,NA,NA,NA,NA,NA,NA,NA,NA,NA,NA,NA,NA,NA,NA,NA,NA,NA,NA,NA,NA,NA,NA,NA,NA,NA,NA,NA,NA,NA,NA,NA,NA,NA,NA,NA,NA,NA,NA,NA,NA,NA,NA,NA
ax8nxtt8qmghc,2,1,-1388,NA,neutral,1,NA,NA,NA,NA,NA,NA,NA,NA,NA,NA,NA,NA,NA,NA,NA,NA,NA,NA,NA,NA,NA,NA,NA,NA,NA,NA,NA,NA,NA,NA,NA,NA,NA,NA,NA,NA,NA,NA,NA,NA,NA,NA,NA,NA,NA,NA,NA,NA,NA,NA,NA,NA
ax8nxtt8qmghc,2,1,-1388,NA,threat,0,NA,NA,NA,NA,NA,NA,NA,NA,NA,NA,NA,NA,NA,NA,NA,NA,NA,NA,NA,NA,NA,NA,NA,NA,NA,NA,NA,NA,NA,NA,NA,NA,NA,NA,NA,NA,NA,NA,NA,NA,NA,NA,NA,NA,NA,NA,NA,NA,NA,NA,NA,NA
ax8nxtt8qmghc,2,1,-1388,NA,neutral,0,NA,NA,NA,NA,NA,NA,NA,NA,NA,NA,NA,NA,NA,NA,NA,NA,NA,NA,NA,NA,NA,NA,NA,NA,NA,NA,NA,NA,NA,NA,NA,NA,NA,NA,NA,NA,NA,NA,NA,NA,NA,NA,NA,NA,NA,NA,NA,NA,NA,NA,NA,NA
ax8nxtt8qmghc,2,1,-1388,NA,neutral,1,NA,NA,NA,NA,NA,NA,NA,NA,NA,NA,NA,NA,NA,NA,NA,NA,NA,NA,NA,NA,NA,NA,NA,NA,NA,NA,NA,NA,NA,NA,NA,NA,NA,NA,NA,NA,NA,NA,NA,NA,NA,NA,NA,NA,NA,NA,NA,NA,NA,NA,NA,NA
ax8nxtt8qmghc,2,1,-1388,NA,neutral,0,NA,NA,NA,NA,NA,NA,NA,NA,NA,NA,NA,NA,NA,NA,NA,NA,NA,NA,NA,NA,NA,NA,NA,NA,NA,NA,NA,NA,NA,NA,NA,NA,NA,NA,NA,NA,NA,NA,NA,NA,NA,NA,NA,NA,NA,NA,NA,NA,NA,NA,NA,NA
ax8nxtt8qmghc,2,1,34205,7,NA,NA,NA,NA,1,neutral,neutral,picture9.jpg,picture9.jpg,0,neutral,neutral,picture2.jpg,picture4.jpg,1,threat,threat,picture4.jpg,picture4.jpg,1,threat,threat,picture3.jpg,picture3.jpg,1,neutral,neutral,picture3.jpg,picture3.jpg,0,threat,neutral,picture1.jpg,picture2.jpg,1,threat,threat,picture2.jpg,picture2.jpg,0,neutral,threat,picture4.jpg,picture1.jpg,1,neutral,neutral,picture6.jpg,picture6.jpg,1,neutral,neutral,picture8.jpg,picture8.jpg
ax8nxtt8qmghc,2,2,34205,NA,neutral,1,threat,0,NA,NA,NA,NA,NA,NA,NA,NA,NA,NA,NA,NA,NA,NA,NA,NA,NA,NA,NA,NA,NA,NA,NA,NA,NA,NA,NA,NA,NA,NA,NA,NA,NA,NA,NA,NA,NA,NA,NA,NA,NA,NA,NA,NA,NA,NA,NA,NA,NA,NA
ax8nxtt8qmghc,2,2,44636,8,NA,NA,NA,NA,1,neutral,neutral,picture9.jpg,picture9.jpg,0,threat,neutral,picture1.jpg,picture4.jpg,1,threat,threat,picture4.jpg,picture4.jpg,1,threat,threat,picture3.jpg,picture3.jpg,1,neutral,neutral,picture3.jpg,picture3.jpg,1,neutral,neutral,picture2.jpg,picture2.jpg,1,threat,threat,picture2.jpg,picture2.jpg,0,neutral,threat,picture4.jpg,picture1.jpg,1,neutral,neutral,picture6.jpg,picture6.jpg,1,neutral,neutral,picture8.jpg,picture8.jpg
ax8nxtt8qmghc,2,3,44636,NA,neutral,1,threat,1,NA,NA,NA,NA,NA,NA,NA,NA,NA,NA,NA,NA,NA,NA,NA,NA,NA,NA,NA,NA,NA,NA,NA,NA,NA,NA,NA,NA,NA,NA,NA,NA,NA,NA,NA,NA,NA,NA,NA,NA,NA,NA,NA,NA,NA,NA,NA,NA,NA,NA
ax8nxtt8qmghc,2,3,48477,10,NA,NA,NA,NA,1,neutral,neutral,picture9.jpg,picture9.jpg,1,neutral,neutral,picture4.jpg,picture4.jpg,1,threat,threat,picture4.jpg,picture4.jpg,1,threat,threat,picture3.jpg,picture3.jpg,1,neutral,neutral,picture3.jpg,picture3.jpg,1,neutral,neutral,picture2.jpg,picture2.jpg,1,threat,threat,picture2.jpg,picture2.jpg,1,threat,threat,picture1.jpg,picture1.jpg,1,neutral,neutral,picture6.jpg,picture6.jpg,1,neutral,neutral,picture8.jpg,picture8.jpg
ax8nxtt8qmghc,3,1,-1451,NA,neutral,1,NA,NA,NA,NA,NA,NA,NA,NA,NA,NA,NA,NA,NA,NA,NA,NA,NA,NA,NA,NA,NA,NA,NA,NA,NA,NA,NA,NA,NA,NA,NA,NA,NA,NA,NA,NA,NA,NA,NA,NA,NA,NA,NA,NA,NA,NA,NA,NA,NA,NA,NA,NA
ax8nxtt8qmghc,3,1,-1451,NA,threat,1,NA,NA,NA,NA,NA,NA,NA,NA,NA,NA,NA,NA,NA,NA,NA,NA,NA,NA,NA,NA,NA,NA,NA,NA,NA,NA,NA,NA,NA,NA,NA,NA,NA,NA,NA,NA,NA,NA,NA,NA,NA,NA,NA,NA,NA,NA,NA,NA,NA,NA,NA,NA
ax8nxtt8qmghc,3,1,-1451,NA,threat,1,NA,NA,NA,NA,NA,NA,NA,NA,NA,NA,NA,NA,NA,NA,NA,NA,NA,NA,NA,NA,NA,NA,NA,NA,NA,NA,NA,NA,NA,NA,NA,NA,NA,NA,NA,NA,NA,NA,NA,NA,NA,NA,NA,NA,NA,NA,NA,NA,NA,NA,NA,NA
ax8nxtt8qmghc,3,1,-1451,NA,neutral,1,NA,NA,NA,NA,NA,NA,NA,NA,NA,NA,NA,NA,NA,NA,NA,NA,NA,NA,NA,NA,NA,NA,NA,NA,NA,NA,NA,NA,NA,NA,NA,NA,NA,NA,NA,NA,NA,NA,NA,NA,NA,NA,NA,NA,NA,NA,NA,NA,NA,NA,NA,NA
ax8nxtt8qmghc,3,1,-1451,NA,neutral,1,NA,NA,NA,NA,NA,NA,NA,NA,NA,NA,NA,NA,NA,NA,NA,NA,NA,NA,NA,NA,NA,NA,NA,NA,NA,NA,NA,NA,NA,NA,NA,NA,NA,NA,NA,NA,NA,NA,NA,NA,NA,NA,NA,NA,NA,NA,NA,NA,NA,NA,NA,NA
ax8nxtt8qmghc,3,1,-1451,NA,threat,1,NA,NA,NA,NA,NA,NA,NA,NA,NA,NA,NA,NA,NA,NA,NA,NA,NA,NA,NA,NA,NA,NA,NA,NA,NA,NA,NA,NA,NA,NA,NA,NA,NA,NA,NA,NA,NA,NA,NA,NA,NA,NA,NA,NA,NA,NA,NA,NA,NA,NA,NA,NA
ax8nxtt8qmghc,3,1,-1451,NA,neutral,1,NA,NA,NA,NA,NA,NA,NA,NA,NA,NA,NA,NA,NA,NA,NA,NA,NA,NA,NA,NA,NA,NA,NA,NA,NA,NA,NA,NA,NA,NA,NA,NA,NA,NA,NA,NA,NA,NA,NA,NA,NA,NA,NA,NA,NA,NA,NA,NA,NA,NA,NA,NA
ax8nxtt8qmghc,3,1,-1451,NA,threat,1,NA,NA,NA,NA,NA,NA,NA,NA,NA,NA,NA,NA,NA,NA,NA,NA,NA,NA,NA,NA,NA,NA,NA,NA,NA,NA,NA,NA,NA,NA,NA,NA,NA,NA,NA,NA,NA,NA,NA,NA,NA,NA,NA,NA,NA,NA,NA,NA,NA,NA,NA,NA
ax8nxtt8qmghc,3,1,-1451,NA,neutral,1,NA,NA,NA,NA,NA,NA,NA,NA,NA,NA,NA,NA,NA,NA,NA,NA,NA,NA,NA,NA,NA,NA,NA,NA,NA,NA,NA,NA,NA,NA,NA,NA,NA,NA,NA,NA,NA,NA,NA,NA,NA,NA,NA,NA,NA,NA,NA,NA,NA,NA,NA,NA
ax8nxtt8qmghc,3,1,-1451,NA,neutral,1,NA,NA,NA,NA,NA,NA,NA,NA,NA,NA,NA,NA,NA,NA,NA,NA,NA,NA,NA,NA,NA,NA,NA,NA,NA,NA,NA,NA,NA,NA,NA,NA,NA,NA,NA,NA,NA,NA,NA,NA,NA,NA,NA,NA,NA,NA,NA,NA,NA,NA,NA,NA
ax8nxtt8qmghc,3,1,27314,10,NA,NA,NA,NA,1,neutral,neutral,picture9.jpg,picture9.jpg,1,neutral,neutral,picture4.jpg,picture4.jpg,1,threat,threat,picture4.jpg,picture4.jpg,1,threat,threat,picture3.jpg,picture3.jpg,1,neutral,neutral,picture3.jpg,picture3.jpg,1,neutral,neutral,picture2.jpg,picture2.jpg,1,threat,threat,picture2.jpg,picture2.jpg,1,threat,threat,picture1.jpg,picture1.jpg,1,neutral,neutral,picture6.jpg,picture6.jpg,1,neutral,neutral,picture8.jpg,picture8.jpg
ax8nxtt8qmghc,4,1,-1407,NA,threat,1,NA,NA,NA,NA,NA,NA,NA,NA,NA,NA,NA,NA,NA,NA,NA,NA,NA,NA,NA,NA,NA,NA,NA,NA,NA,NA,NA,NA,NA,NA,NA,NA,NA,NA,NA,NA,NA,NA,NA,NA,NA,NA,NA,NA,NA,NA,NA,NA,NA,NA,NA,NA
ax8nxtt8qmghc,4,1,-1407,NA,neutral,1,NA,NA,NA,NA,NA,NA,NA,NA,NA,NA,NA,NA,NA,NA,NA,NA,NA,NA,NA,NA,NA,NA,NA,NA,NA,NA,NA,NA,NA,NA,NA,NA,NA,NA,NA,NA,NA,NA,NA,NA,NA,NA,NA,NA,NA,NA,NA,NA,NA,NA,NA,NA
ax8nxtt8qmghc,4,1,-1407,NA,neutral,1,NA,NA,NA,NA,NA,NA,NA,NA,NA,NA,NA,NA,NA,NA,NA,NA,NA,NA,NA,NA,NA,NA,NA,NA,NA,NA,NA,NA,NA,NA,NA,NA,NA,NA,NA,NA,NA,NA,NA,NA,NA,NA,NA,NA,NA,NA,NA,NA,NA,NA,NA,NA
ax8nxtt8qmghc,4,1,-1407,NA,neutral,1,NA,NA,NA,NA,NA,NA,NA,NA,NA,NA,NA,NA,NA,NA,NA,NA,NA,NA,NA,NA,NA,NA,NA,NA,NA,NA,NA,NA,NA,NA,NA,NA,NA,NA,NA,NA,NA,NA,NA,NA,NA,NA,NA,NA,NA,NA,NA,NA,NA,NA,NA,NA
ax8nxtt8qmghc,4,1,-1407,NA,threat,1,NA,NA,NA,NA,NA,NA,NA,NA,NA,NA,NA,NA,NA,NA,NA,NA,NA,NA,NA,NA,NA,NA,NA,NA,NA,NA,NA,NA,NA,NA,NA,NA,NA,NA,NA,NA,NA,NA,NA,NA,NA,NA,NA,NA,NA,NA,NA,NA,NA,NA,NA,NA
ax8nxtt8qmghc,4,1,-1407,NA,threat,1,NA,NA,NA,NA,NA,NA,NA,NA,NA,NA,NA,NA,NA,NA,NA,NA,NA,NA,NA,NA,NA,NA,NA,NA,NA,NA,NA,NA,NA,NA,NA,NA,NA,NA,NA,NA,NA,NA,NA,NA,NA,NA,NA,NA,NA,NA,NA,NA,NA,NA,NA,NA
ax8nxtt8qmghc,4,1,-1407,NA,neutral,1,NA,NA,NA,NA,NA,NA,NA,NA,NA,NA,NA,NA,NA,NA,NA,NA,NA,NA,NA,NA,NA,NA,NA,NA,NA,NA,NA,NA,NA,NA,NA,NA,NA,NA,NA,NA,NA,NA,NA,NA,NA,NA,NA,NA,NA,NA,NA,NA,NA,NA,NA,NA
ax8nxtt8qmghc,4,1,-1407,NA,threat,1,NA,NA,NA,NA,NA,NA,NA,NA,NA,NA,NA,NA,NA,NA,NA,NA,NA,NA,NA,NA,NA,NA,NA,NA,NA,NA,NA,NA,NA,NA,NA,NA,NA,NA,NA,NA,NA,NA,NA,NA,NA,NA,NA,NA,NA,NA,NA,NA,NA,NA,NA,NA
ax8nxtt8qmghc,4,1,-1407,NA,neutral,1,NA,NA,NA,NA,NA,NA,NA,NA,NA,NA,NA,NA,NA,NA,NA,NA,NA,NA,NA,NA,NA,NA,NA,NA,NA,NA,NA,NA,NA,NA,NA,NA,NA,NA,NA,NA,NA,NA,NA,NA,NA,NA,NA,NA,NA,NA,NA,NA,NA,NA,NA,NA
ax8nxtt8qmghc,4,1,-1407,NA,neutral,1,NA,NA,NA,NA,NA,NA,NA,NA,NA,NA,NA,NA,NA,NA,NA,NA,NA,NA,NA,NA,NA,NA,NA,NA,NA,NA,NA,NA,NA,NA,NA,NA,NA,NA,NA,NA,NA,NA,NA,NA,NA,NA,NA,NA,NA,NA,NA,NA,NA,NA,NA,NA
ax8nxtt8qmghc,4,1,28095,10,NA,NA,NA,NA,1,neutral,neutral,picture9.jpg,picture9.jpg,1,neutral,neutral,picture4.jpg,picture4.jpg,1,threat,threat,picture4.jpg,picture4.jpg,1,threat,threat,picture3.jpg,picture3.jpg,1,neutral,neutral,picture3.jpg,picture3.jpg,1,neutral,neutral,picture2.jpg,picture2.jpg,1,threat,threat,picture2.jpg,picture2.jpg,1,threat,threat,picture1.jpg,picture1.jpg,1,neutral,neutral,picture6.jpg,picture6.jpg,1,neutral,neutral,picture8.jpg,picture8.jpg
ax8nxtt8qmghc,5,1,-1194,NA,threat,1,NA,NA,NA,NA,NA,NA,NA,NA,NA,NA,NA,NA,NA,NA,NA,NA,NA,NA,NA,NA,NA,NA,NA,NA,NA,NA,NA,NA,NA,NA,NA,NA,NA,NA,NA,NA,NA,NA,NA,NA,NA,NA,NA,NA,NA,NA,NA,NA,NA,NA,NA,NA
ax8nxtt8qmghc,5,1,-1194,NA,neutral,1,NA,NA,NA,NA,NA,NA,NA,NA,NA,NA,NA,NA,NA,NA,NA,NA,NA,NA,NA,NA,NA,NA,NA,NA,NA,NA,NA,NA,NA,NA,NA,NA,NA,NA,NA,NA,NA,NA,NA,NA,NA,NA,NA,NA,NA,NA,NA,NA,NA,NA,NA,NA
ax8nxtt8qmghc,5,1,-1194,NA,neutral,1,NA,NA,NA,NA,NA,NA,NA,NA,NA,NA,NA,NA,NA,NA,NA,NA,NA,NA,NA,NA,NA,NA,NA,NA,NA,NA,NA,NA,NA,NA,NA,NA,NA,NA,NA,NA,NA,NA,NA,NA,NA,NA,NA,NA,NA,NA,NA,NA,NA,NA,NA,NA
ax8nxtt8qmghc,5,1,-1194,NA,threat,1,NA,NA,NA,NA,NA,NA,NA,NA,NA,NA,NA,NA,NA,NA,NA,NA,NA,NA,NA,NA,NA,NA,NA,NA,NA,NA,NA,NA,NA,NA,NA,NA,NA,NA,NA,NA,NA,NA,NA,NA,NA,NA,NA,NA,NA,NA,NA,NA,NA,NA,NA,NA
ax8nxtt8qmghc,5,1,-1194,NA,neutral,1,NA,NA,NA,NA,NA,NA,NA,NA,NA,NA,NA,NA,NA,NA,NA,NA,NA,NA,NA,NA,NA,NA,NA,NA,NA,NA,NA,NA,NA,NA,NA,NA,NA,NA,NA,NA,NA,NA,NA,NA,NA,NA,NA,NA,NA,NA,NA,NA,NA,NA,NA,NA
ax8nxtt8qmghc,5,1,-1194,NA,neutral,1,NA,NA,NA,NA,NA,NA,NA,NA,NA,NA,NA,NA,NA,NA,NA,NA,NA,NA,NA,NA,NA,NA,NA,NA,NA,NA,NA,NA,NA,NA,NA,NA,NA,NA,NA,NA,NA,NA,NA,NA,NA,NA,NA,NA,NA,NA,NA,NA,NA,NA,NA,NA
ax8nxtt8qmghc,5,1,-1194,NA,threat,1,NA,NA,NA,NA,NA,NA,NA,NA,NA,NA,NA,NA,NA,NA,NA,NA,NA,NA,NA,NA,NA,NA,NA,NA,NA,NA,NA,NA,NA,NA,NA,NA,NA,NA,NA,NA,NA,NA,NA,NA,NA,NA,NA,NA,NA,NA,NA,NA,NA,NA,NA,NA
ax8nxtt8qmghc,5,1,-1194,NA,threat,1,NA,NA,NA,NA,NA,NA,NA,NA,NA,NA,NA,NA,NA,NA,NA,NA,NA,NA,NA,NA,NA,NA,NA,NA,NA,NA,NA,NA,NA,NA,NA,NA,NA,NA,NA,NA,NA,NA,NA,NA,NA,NA,NA,NA,NA,NA,NA,NA,NA,NA,NA,NA
ax8nxtt8qmghc,5,1,-1194,NA,neutral,1,NA,NA,NA,NA,NA,NA,NA,NA,NA,NA,NA,NA,NA,NA,NA,NA,NA,NA,NA,NA,NA,NA,NA,NA,NA,NA,NA,NA,NA,NA,NA,NA,NA,NA,NA,NA,NA,NA,NA,NA,NA,NA,NA,NA,NA,NA,NA,NA,NA,NA,NA,NA
ax8nxtt8qmghc,5,1,-1194,NA,neutral,1,NA,NA,NA,NA,NA,NA,NA,NA,NA,NA,NA,NA,NA,NA,NA,NA,NA,NA,NA,NA,NA,NA,NA,NA,NA,NA,NA,NA,NA,NA,NA,NA,NA,NA,NA,NA,NA,NA,NA,NA,NA,NA,NA,NA,NA,NA,NA,NA,NA,NA,NA,NA
ax8nxtt8qmghc,5,1,40922,10,NA,NA,NA,NA,1,neutral,neutral,picture9.jpg,picture9.jpg,1,neutral,neutral,picture4.jpg,picture4.jpg,1,threat,threat,picture4.jpg,picture4.jpg,1,threat,threat,picture3.jpg,picture3.jpg,1,neutral,neutral,picture3.jpg,picture3.jpg,1,neutral,neutral,picture2.jpg,picture2.jpg,1,threat,threat,picture2.jpg,picture2.jpg,1,threat,threat,picture1.jpg,picture1.jpg,1,neutral,neutral,picture6.jpg,picture6.jpg,1,neutral,neutral,picture8.jpg,picture8.jpg
a3eqr9c0l23o6e,1,1,NA,NA,neutral,0,NA,NA,NA,NA,NA,NA,NA,NA,NA,NA,NA,NA,NA,NA,NA,NA,NA,NA,NA,NA,NA,NA,NA,NA,NA,NA,NA,NA,NA,NA,NA,NA,NA,NA,NA,NA,NA,NA,NA,NA,NA,NA,NA,NA,NA,NA,NA,NA,NA,NA,NA,NA
a3eqr9c0l23o6e,1,1,NA,NA,neutral,0,NA,NA,NA,NA,NA,NA,NA,NA,NA,NA,NA,NA,NA,NA,NA,NA,NA,NA,NA,NA,NA,NA,NA,NA,NA,NA,NA,NA,NA,NA,NA,NA,NA,NA,NA,NA,NA,NA,NA,NA,NA,NA,NA,NA,NA,NA,NA,NA,NA,NA,NA,NA
a3eqr9c0l23o6e,1,1,NA,NA,neutral,0,NA,NA,NA,NA,NA,NA,NA,NA,NA,NA,NA,NA,NA,NA,NA,NA,NA,NA,NA,NA,NA,NA,NA,NA,NA,NA,NA,NA,NA,NA,NA,NA,NA,NA,NA,NA,NA,NA,NA,NA,NA,NA,NA,NA,NA,NA,NA,NA,NA,NA,NA,NA
a3eqr9c0l23o6e,1,1,NA,NA,neutral,0,NA,NA,NA,NA,NA,NA,NA,NA,NA,NA,NA,NA,NA,NA,NA,NA,NA,NA,NA,NA,NA,NA,NA,NA,NA,NA,NA,NA,NA,NA,NA,NA,NA,NA,NA,NA,NA,NA,NA,NA,NA,NA,NA,NA,NA,NA,NA,NA,NA,NA,NA,NA
a3eqr9c0l23o6e,1,1,NA,NA,neutral,0,NA,NA,NA,NA,NA,NA,NA,NA,NA,NA,NA,NA,NA,NA,NA,NA,NA,NA,NA,NA,NA,NA,NA,NA,NA,NA,NA,NA,NA,NA,NA,NA,NA,NA,NA,NA,NA,NA,NA,NA,NA,NA,NA,NA,NA,NA,NA,NA,NA,NA,NA,NA
a3eqr9c0l23o6e,1,1,NA,NA,threat,1,NA,NA,NA,NA,NA,NA,NA,NA,NA,NA,NA,NA,NA,NA,NA,NA,NA,NA,NA,NA,NA,NA,NA,NA,NA,NA,NA,NA,NA,NA,NA,NA,NA,NA,NA,NA,NA,NA,NA,NA,NA,NA,NA,NA,NA,NA,NA,NA,NA,NA,NA,NA
a3eqr9c0l23o6e,1,1,NA,NA,threat,0,NA,NA,NA,NA,NA,NA,NA,NA,NA,NA,NA,NA,NA,NA,NA,NA,NA,NA,NA,NA,NA,NA,NA,NA,NA,NA,NA,NA,NA,NA,NA,NA,NA,NA,NA,NA,NA,NA,NA,NA,NA,NA,NA,NA,NA,NA,NA,NA,NA,NA,NA,NA
a3eqr9c0l23o6e,1,1,NA,NA,neutral,0,NA,NA,NA,NA,NA,NA,NA,NA,NA,NA,NA,NA,NA,NA,NA,NA,NA,NA,NA,NA,NA,NA,NA,NA,NA,NA,NA,NA,NA,NA,NA,NA,NA,NA,NA,NA,NA,NA,NA,NA,NA,NA,NA,NA,NA,NA,NA,NA,NA,NA,NA,NA
a3eqr9c0l23o6e,1,1,NA,NA,threat,0,NA,NA,NA,NA,NA,NA,NA,NA,NA,NA,NA,NA,NA,NA,NA,NA,NA,NA,NA,NA,NA,NA,NA,NA,NA,NA,NA,NA,NA,NA,NA,NA,NA,NA,NA,NA,NA,NA,NA,NA,NA,NA,NA,NA,NA,NA,NA,NA,NA,NA,NA,NA
a3eqr9c0l23o6e,1,1,NA,NA,threat,0,NA,NA,NA,NA,NA,NA,NA,NA,NA,NA,NA,NA,NA,NA,NA,NA,NA,NA,NA,NA,NA,NA,NA,NA,NA,NA,NA,NA,NA,NA,NA,NA,NA,NA,NA,NA,NA,NA,NA,NA,NA,NA,NA,NA,NA,NA,NA,NA,NA,NA,NA,NA
a3eqr9c0l23o6e,1,1,NA,NA,neutral,1,NA,NA,NA,NA,NA,NA,NA,NA,NA,NA,NA,NA,NA,NA,NA,NA,NA,NA,NA,NA,NA,NA,NA,NA,NA,NA,NA,NA,NA,NA,NA,NA,NA,NA,NA,NA,NA,NA,NA,NA,NA,NA,NA,NA,NA,NA,NA,NA,NA,NA,NA,NA
a3eqr9c0l23o6e,1,1,31702,2,NA,NA,NA,NA,0,neutral,neutral,picture1.jpg,picture9.jpg,0,neutral,threat,picture9.jpg,picture3.jpg,0,neutral,neutral,picture6.jpg,picture7.jpg,0,threat,threat,picture1.jpg,picture2.jpg,0,threat,neutral,picture2.jpg,picture6.jpg,0,neutral,neutral,picture10.jpg,picture1.jpg,0,neutral,neutral,picture7.jpg,picture10.jpg,1,threat,threat,picture4.jpg,picture4.jpg,0,threat,threat,picture3.jpg,picture1.jpg,1,neutral,neutral,picture4.jpg,picture4.jpg
a3eqr9c0l23o6e,1,2,31702,NA,threat,0,threat,0,NA,NA,NA,NA,NA,NA,NA,NA,NA,NA,NA,NA,NA,NA,NA,NA,NA,NA,NA,NA,NA,NA,NA,NA,NA,NA,NA,NA,NA,NA,NA,NA,NA,NA,NA,NA,NA,NA,NA,NA,NA,NA,NA,NA,NA,NA,NA,NA,NA,NA
a3eqr9c0l23o6e,1,2,39553,2,NA,NA,NA,NA,0,neutral,neutral,picture1.jpg,picture9.jpg,0,neutral,threat,picture9.jpg,picture3.jpg,0,neutral,neutral,picture6.jpg,picture7.jpg,0,threat,threat,picture1.jpg,picture2.jpg,0,threat,neutral,picture3.jpg,picture6.jpg,0,neutral,neutral,picture10.jpg,picture1.jpg,0,neutral,neutral,picture7.jpg,picture10.jpg,1,threat,threat,picture4.jpg,picture4.jpg,0,threat,threat,picture2.jpg,picture1.jpg,1,neutral,neutral,picture4.jpg,picture4.jpg
a3eqr9c0l23o6e,1,3,40276,2,NA,NA,NA,NA,0,neutral,neutral,picture1.jpg,picture9.jpg,0,neutral,threat,picture9.jpg,picture3.jpg,0,neutral,neutral,picture6.jpg,picture7.jpg,0,threat,threat,picture1.jpg,picture2.jpg,0,threat,neutral,picture3.jpg,picture6.jpg,0,neutral,neutral,picture10.jpg,picture1.jpg,0,neutral,neutral,picture7.jpg,picture10.jpg,1,threat,threat,picture4.jpg,picture4.jpg,0,threat,threat,picture2.jpg,picture1.jpg,1,neutral,neutral,picture4.jpg,picture4.jpg
a3eqr9c0l23o6e,1,4,40276,NA,threat,0,threat,0,NA,NA,NA,NA,NA,NA,NA,NA,NA,NA,NA,NA,NA,NA,NA,NA,NA,NA,NA,NA,NA,NA,NA,NA,NA,NA,NA,NA,NA,NA,NA,NA,NA,NA,NA,NA,NA,NA,NA,NA,NA,NA,NA,NA,NA,NA,NA,NA,NA,NA
a3eqr9c0l23o6e,1,4,42803,2,NA,NA,NA,NA,0,neutral,neutral,picture1.jpg,picture9.jpg,0,neutral,threat,picture9.jpg,picture3.jpg,0,neutral,neutral,picture6.jpg,picture7.jpg,0,threat,threat,picture1.jpg,picture2.jpg,0,threat,neutral,picture2.jpg,picture6.jpg,0,neutral,neutral,picture10.jpg,picture1.jpg,0,neutral,neutral,picture7.jpg,picture10.jpg,1,threat,threat,picture4.jpg,picture4.jpg,0,threat,threat,picture3.jpg,picture1.jpg,1,neutral,neutral,picture4.jpg,picture4.jpg
a3eqr9c0l23o6e,1,5,43975,2,NA,NA,NA,NA,0,neutral,neutral,picture1.jpg,picture9.jpg,0,neutral,threat,picture9.jpg,picture3.jpg,0,neutral,neutral,picture6.jpg,picture7.jpg,0,threat,threat,picture1.jpg,picture2.jpg,0,threat,neutral,picture2.jpg,picture6.jpg,0,neutral,neutral,picture10.jpg,picture1.jpg,0,neutral,neutral,picture7.jpg,picture10.jpg,1,threat,threat,picture4.jpg,picture4.jpg,0,threat,threat,picture3.jpg,picture1.jpg,1,neutral,neutral,picture4.jpg,picture4.jpg
a3eqr9c0l23o6e,1,6,43975,NA,neutral,0,threat,0,NA,NA,NA,NA,NA,NA,NA,NA,NA,NA,NA,NA,NA,NA,NA,NA,NA,NA,NA,NA,NA,NA,NA,NA,NA,NA,NA,NA,NA,NA,NA,NA,NA,NA,NA,NA,NA,NA,NA,NA,NA,NA,NA,NA,NA,NA,NA,NA,NA,NA
a3eqr9c0l23o6e,1,6,51496,2,NA,NA,NA,NA,0,threat,neutral,picture2.jpg,picture9.jpg,0,neutral,threat,picture9.jpg,picture3.jpg,0,neutral,neutral,picture6.jpg,picture7.jpg,0,threat,threat,picture1.jpg,picture2.jpg,0,neutral,neutral,picture1.jpg,picture6.jpg,0,neutral,neutral,picture10.jpg,picture1.jpg,0,neutral,neutral,picture7.jpg,picture10.jpg,1,threat,threat,picture4.jpg,picture4.jpg,0,threat,threat,picture3.jpg,picture1.jpg,1,neutral,neutral,picture4.jpg,picture4.jpg
a3eqr9c0l23o6e,1,7,51496,NA,neutral,0,threat,0,NA,NA,NA,NA,NA,NA,NA,NA,NA,NA,NA,NA,NA,NA,NA,NA,NA,NA,NA,NA,NA,NA,NA,NA,NA,NA,NA,NA,NA,NA,NA,NA,NA,NA,NA,NA,NA,NA,NA,NA,NA,NA,NA,NA,NA,NA,NA,NA,NA,NA
a3eqr9c0l23o6e,1,7,54398,2,NA,NA,NA,NA,0,threat,neutral,picture2.jpg,picture9.jpg,0,neutral,threat,picture9.jpg,picture3.jpg,0,neutral,neutral,picture6.jpg,picture7.jpg,0,neutral,threat,picture1.jpg,picture2.jpg,0,threat,neutral,picture1.jpg,picture6.jpg,0,neutral,neutral,picture10.jpg,picture1.jpg,0,neutral,neutral,picture7.jpg,picture10.jpg,1,threat,threat,picture4.jpg,picture4.jpg,0,threat,threat,picture3.jpg,picture1.jpg,1,neutral,neutral,picture4.jpg,picture4.jpg
a3eqr9c0l23o6e,1,8,54398,NA,neutral,0,neutral,0,NA,NA,NA,NA,NA,NA,NA,NA,NA,NA,NA,NA,NA,NA,NA,NA,NA,NA,NA,NA,NA,NA,NA,NA,NA,NA,NA,NA,NA,NA,NA,NA,NA,NA,NA,NA,NA,NA,NA,NA,NA,NA,NA,NA,NA,NA,NA,NA,NA,NA
a3eqr9c0l23o6e,1,8,56699,2,NA,NA,NA,NA,0,threat,neutral,picture2.jpg,picture9.jpg,0,neutral,threat,picture9.jpg,picture3.jpg,0,neutral,neutral,picture1.jpg,picture7.jpg,0,neutral,threat,picture6.jpg,picture2.jpg,0,threat,neutral,picture1.jpg,picture6.jpg,0,neutral,neutral,picture10.jpg,picture1.jpg,0,neutral,neutral,picture7.jpg,picture10.jpg,1,threat,threat,picture4.jpg,picture4.jpg,0,threat,threat,picture3.jpg,picture1.jpg,1,neutral,neutral,picture4.jpg,picture4.jpg
a3eqr9c0l23o6e,1,9,56699,NA,neutral,0,neutral,0,NA,NA,NA,NA,NA,NA,NA,NA,NA,NA,NA,NA,NA,NA,NA,NA,NA,NA,NA,NA,NA,NA,NA,NA,NA,NA,NA,NA,NA,NA,NA,NA,NA,NA,NA,NA,NA,NA,NA,NA,NA,NA,NA,NA,NA,NA,NA,NA,NA,NA
a3eqr9c0l23o6e,1,9,56699,NA,neutral,0,threat,0,NA,NA,NA,NA,NA,NA,NA,NA,NA,NA,NA,NA,NA,NA,NA,NA,NA,NA,NA,NA,NA,NA,NA,NA,NA,NA,NA,NA,NA,NA,NA,NA,NA,NA,NA,NA,NA,NA,NA,NA,NA,NA,NA,NA,NA,NA,NA,NA,NA,NA
a3eqr9c0l23o6e,1,9,60930,2,NA,NA,NA,NA,0,neutral,neutral,picture1.jpg,picture9.jpg,0,threat,threat,picture2.jpg,picture3.jpg,0,neutral,neutral,picture9.jpg,picture7.jpg,0,neutral,threat,picture6.jpg,picture2.jpg,0,threat,neutral,picture1.jpg,picture6.jpg,0,neutral,neutral,picture10.jpg,picture1.jpg,0,neutral,neutral,picture7.jpg,picture10.jpg,1,threat,threat,picture4.jpg,picture4.jpg,0,threat,threat,picture3.jpg,picture1.jpg,1,neutral,neutral,picture4.jpg,picture4.jpg
a3eqr9c0l23o6e,1,10,60930,NA,neutral,1,neutral,0,NA,NA,NA,NA,NA,NA,NA,NA,NA,NA,NA,NA,NA,NA,NA,NA,NA,NA,NA,NA,NA,NA,NA,NA,NA,NA,NA,NA,NA,NA,NA,NA,NA,NA,NA,NA,NA,NA,NA,NA,NA,NA,NA,NA,NA,NA,NA,NA,NA,NA
a3eqr9c0l23o6e,1,10,63629,3,NA,NA,NA,NA,0,neutral,neutral,picture10.jpg,picture9.jpg,0,threat,threat,picture2.jpg,picture3.jpg,0,neutral,neutral,picture9.jpg,picture7.jpg,0,neutral,threat,picture6.jpg,picture2.jpg,0,threat,neutral,picture1.jpg,picture6.jpg,1,neutral,neutral,picture1.jpg,picture1.jpg,0,neutral,neutral,picture7.jpg,picture10.jpg,1,threat,threat,picture4.jpg,picture4.jpg,0,threat,threat,picture3.jpg,picture1.jpg,1,neutral,neutral,picture4.jpg,picture4.jpg
a3eqr9c0l23o6e,1,11,63629,NA,neutral,0,threat,0,NA,NA,NA,NA,NA,NA,NA,NA,NA,NA,NA,NA,NA,NA,NA,NA,NA,NA,NA,NA,NA,NA,NA,NA,NA,NA,NA,NA,NA,NA,NA,NA,NA,NA,NA,NA,NA,NA,NA,NA,NA,NA,NA,NA,NA,NA,NA,NA,NA,NA
a3eqr9c0l23o6e,1,11,69141,3,NA,NA,NA,NA,0,threat,neutral,picture1.jpg,picture9.jpg,0,threat,threat,picture2.jpg,picture3.jpg,0,neutral,neutral,picture9.jpg,picture7.jpg,0,neutral,threat,picture6.jpg,picture2.jpg,0,neutral,neutral,picture10.jpg,picture6.jpg,1,neutral,neutral,picture1.jpg,picture1.jpg,0,neutral,neutral,picture7.jpg,picture10.jpg,1,threat,threat,picture4.jpg,picture4.jpg,0,threat,threat,picture3.jpg,picture1.jpg,1,neutral,neutral,picture4.jpg,picture4.jpg
a3eqr9c0l23o6e,1,12,69141,NA,neutral,1,neutral,0,NA,NA,NA,NA,NA,NA,NA,NA,NA,NA,NA,NA,NA,NA,NA,NA,NA,NA,NA,NA,NA,NA,NA,NA,NA,NA,NA,NA,NA,NA,NA,NA,NA,NA,NA,NA,NA,NA,NA,NA,NA,NA,NA,NA,NA,NA,NA,NA,NA,NA
a3eqr9c0l23o6e,1,12,71053,4,NA,NA,NA,NA,0,threat,neutral,picture1.jpg,picture9.jpg,0,threat,threat,picture2.jpg,picture3.jpg,0,neutral,neutral,picture9.jpg,picture7.jpg,0,neutral,threat,picture6.jpg,picture2.jpg,0,neutral,neutral,picture7.jpg,picture6.jpg,1,neutral,neutral,picture1.jpg,picture1.jpg,1,neutral,neutral,picture10.jpg,picture10.jpg,1,threat,threat,picture4.jpg,picture4.jpg,0,threat,threat,picture3.jpg,picture1.jpg,1,neutral,neutral,picture4.jpg,picture4.jpg
a3eqr9c0l23o6e,1,13,71053,NA,threat,0,neutral,0,NA,NA,NA,NA,NA,NA,NA,NA,NA,NA,NA,NA,NA,NA,NA,NA,NA,NA,NA,NA,NA,NA,NA,NA,NA,NA,NA,NA,NA,NA,NA,NA,NA,NA,NA,NA,NA,NA,NA,NA,NA,NA,NA,NA,NA,NA,NA,NA,NA,NA
a3eqr9c0l23o6e,1,13,74087,4,NA,NA,NA,NA,0,threat,neutral,picture1.jpg,picture9.jpg,0,threat,threat,picture2.jpg,picture3.jpg,0,neutral,neutral,picture9.jpg,picture7.jpg,0,neutral,threat,picture6.jpg,picture2.jpg,0,threat,neutral,picture3.jpg,picture6.jpg,1,neutral,neutral,picture1.jpg,picture1.jpg,1,neutral,neutral,picture10.jpg,picture10.jpg,1,threat,threat,picture4.jpg,picture4.jpg,0,neutral,threat,picture7.jpg,picture1.jpg,1,neutral,neutral,picture4.jpg,picture4.jpg
a3eqr9c0l23o6e,1,14,74087,NA,threat,0,threat,0,NA,NA,NA,NA,NA,NA,NA,NA,NA,NA,NA,NA,NA,NA,NA,NA,NA,NA,NA,NA,NA,NA,NA,NA,NA,NA,NA,NA,NA,NA,NA,NA,NA,NA,NA,NA,NA,NA,NA,NA,NA,NA,NA,NA,NA,NA,NA,NA,NA,NA
a3eqr9c0l23o6e,1,14,76061,4,NA,NA,NA,NA,0,threat,neutral,picture3.jpg,picture9.jpg,0,threat,threat,picture2.jpg,picture3.jpg,0,neutral,neutral,picture9.jpg,picture7.jpg,0,neutral,threat,picture6.jpg,picture2.jpg,0,threat,neutral,picture1.jpg,picture6.jpg,1,neutral,neutral,picture1.jpg,picture1.jpg,1,neutral,neutral,picture10.jpg,picture10.jpg,1,threat,threat,picture4.jpg,picture4.jpg,0,neutral,threat,picture7.jpg,picture1.jpg,1,neutral,neutral,picture4.jpg,picture4.jpg
a3eqr9c0l23o6e,1,15,76061,NA,threat,1,threat,0,NA,NA,NA,NA,NA,NA,NA,NA,NA,NA,NA,NA,NA,NA,NA,NA,NA,NA,NA,NA,NA,NA,NA,NA,NA,NA,NA,NA,NA,NA,NA,NA,NA,NA,NA,NA,NA,NA,NA,NA,NA,NA,NA,NA,NA,NA,NA,NA,NA,NA
a3eqr9c0l23o6e,1,15,76061,NA,threat,0,neutral,0,NA,NA,NA,NA,NA,NA,NA,NA,NA,NA,NA,NA,NA,NA,NA,NA,NA,NA,NA,NA,NA,NA,NA,NA,NA,NA,NA,NA,NA,NA,NA,NA,NA,NA,NA,NA,NA,NA,NA,NA,NA,NA,NA,NA,NA,NA,NA,NA,NA,NA
a3eqr9c0l23o6e,1,15,88506,4,NA,NA,NA,NA,0,threat,neutral,picture2.jpg,picture9.jpg,0,neutral,threat,picture9.jpg,picture3.jpg,0,threat,neutral,picture3.jpg,picture7.jpg,0,neutral,threat,picture6.jpg,picture2.jpg,0,threat,neutral,picture1.jpg,picture6.jpg,1,neutral,neutral,picture1.jpg,picture1.jpg,1,neutral,neutral,picture10.jpg,picture10.jpg,1,threat,threat,picture4.jpg,picture4.jpg,0,neutral,threat,picture7.jpg,picture1.jpg,1,neutral,neutral,picture4.jpg,picture4.jpg
a3eqr9c0l23o6e,1,16,88506,NA,threat,0,neutral,0,NA,NA,NA,NA,NA,NA,NA,NA,NA,NA,NA,NA,NA,NA,NA,NA,NA,NA,NA,NA,NA,NA,NA,NA,NA,NA,NA,NA,NA,NA,NA,NA,NA,NA,NA,NA,NA,NA,NA,NA,NA,NA,NA,NA,NA,NA,NA,NA,NA,NA
a3eqr9c0l23o6e,1,16,90682,4,NA,NA,NA,NA,0,threat,neutral,picture2.jpg,picture9.jpg,0,neutral,threat,picture9.jpg,picture3.jpg,0,neutral,neutral,picture6.jpg,picture7.jpg,0,threat,threat,picture3.jpg,picture2.jpg,0,threat,neutral,picture1.jpg,picture6.jpg,1,neutral,neutral,picture1.jpg,picture1.jpg,1,neutral,neutral,picture10.jpg,picture10.jpg,1,threat,threat,picture4.jpg,picture4.jpg,0,neutral,threat,picture7.jpg,picture1.jpg,1,neutral,neutral,picture4.jpg,picture4.jpg
a3eqr9c0l23o6e,1,17,91539,4,NA,NA,NA,NA,0,threat,neutral,picture2.jpg,picture9.jpg,0,neutral,threat,picture9.jpg,picture3.jpg,0,neutral,neutral,picture6.jpg,picture7.jpg,0,threat,threat,picture3.jpg,picture2.jpg,0,threat,neutral,picture1.jpg,picture6.jpg,1,neutral,neutral,picture1.jpg,picture1.jpg,1,neutral,neutral,picture10.jpg,picture10.jpg,1,threat,threat,picture4.jpg,picture4.jpg,0,neutral,threat,picture7.jpg,picture1.jpg,1,neutral,neutral,picture4.jpg,picture4.jpg
a3eqr9c0l23o6e,1,18,91539,NA,threat,0,threat,0,NA,NA,NA,NA,NA,NA,NA,NA,NA,NA,NA,NA,NA,NA,NA,NA,NA,NA,NA,NA,NA,NA,NA,NA,NA,NA,NA,NA,NA,NA,NA,NA,NA,NA,NA,NA,NA,NA,NA,NA,NA,NA,NA,NA,NA,NA,NA,NA,NA,NA
a3eqr9c0l23o6e,1,18,93747,4,NA,NA,NA,NA,0,threat,neutral,picture2.jpg,picture9.jpg,0,neutral,threat,picture9.jpg,picture3.jpg,0,neutral,neutral,picture6.jpg,picture7.jpg,0,threat,threat,picture1.jpg,picture2.jpg,0,threat,neutral,picture3.jpg,picture6.jpg,1,neutral,neutral,picture1.jpg,picture1.jpg,1,neutral,neutral,picture10.jpg,picture10.jpg,1,threat,threat,picture4.jpg,picture4.jpg,0,neutral,threat,picture7.jpg,picture1.jpg,1,neutral,neutral,picture4.jpg,picture4.jpg
a3eqr9c0l23o6e,1,19,93747,NA,threat,0,threat,0,NA,NA,NA,NA,NA,NA,NA,NA,NA,NA,NA,NA,NA,NA,NA,NA,NA,NA,NA,NA,NA,NA,NA,NA,NA,NA,NA,NA,NA,NA,NA,NA,NA,NA,NA,NA,NA,NA,NA,NA,NA,NA,NA,NA,NA,NA,NA,NA,NA,NA
a3eqr9c0l23o6e,1,19,99338,4,NA,NA,NA,NA,0,threat,neutral,picture3.jpg,picture9.jpg,0,neutral,threat,picture9.jpg,picture3.jpg,0,neutral,neutral,picture6.jpg,picture7.jpg,0,threat,threat,picture1.jpg,picture2.jpg,0,threat,neutral,picture2.jpg,picture6.jpg,1,neutral,neutral,picture1.jpg,picture1.jpg,1,neutral,neutral,picture10.jpg,picture10.jpg,1,threat,threat,picture4.jpg,picture4.jpg,0,neutral,threat,picture7.jpg,picture1.jpg,1,neutral,neutral,picture4.jpg,picture4.jpg
a3eqr9c0l23o6e,1,20,99338,NA,threat,1,neutral,1,NA,NA,NA,NA,NA,NA,NA,NA,NA,NA,NA,NA,NA,NA,NA,NA,NA,NA,NA,NA,NA,NA,NA,NA,NA,NA,NA,NA,NA,NA,NA,NA,NA,NA,NA,NA,NA,NA,NA,NA,NA,NA,NA,NA,NA,NA,NA,NA,NA,NA
a3eqr9c0l23o6e,1,20,102464,6,NA,NA,NA,NA,1,neutral,neutral,picture9.jpg,picture9.jpg,1,threat,threat,picture3.jpg,picture3.jpg,0,neutral,neutral,picture6.jpg,picture7.jpg,0,threat,threat,picture1.jpg,picture2.jpg,0,threat,neutral,picture2.jpg,picture6.jpg,1,neutral,neutral,picture1.jpg,picture1.jpg,1,neutral,neutral,picture10.jpg,picture10.jpg,1,threat,threat,picture4.jpg,picture4.jpg,0,neutral,threat,picture7.jpg,picture1.jpg,1,neutral,neutral,picture4.jpg,picture4.jpg
a3eqr9c0l23o6e,1,21,102464,NA,threat,0,neutral,0,NA,NA,NA,NA,NA,NA,NA,NA,NA,NA,NA,NA,NA,NA,NA,NA,NA,NA,NA,NA,NA,NA,NA,NA,NA,NA,NA,NA,NA,NA,NA,NA,NA,NA,NA,NA,NA,NA,NA,NA,NA,NA,NA,NA,NA,NA,NA,NA,NA,NA
a3eqr9c0l23o6e,1,21,107130,6,NA,NA,NA,NA,1,neutral,neutral,picture9.jpg,picture9.jpg,1,threat,threat,picture3.jpg,picture3.jpg,0,neutral,neutral,picture6.jpg,picture7.jpg,0,threat,threat,picture1.jpg,picture2.jpg,0,neutral,neutral,picture7.jpg,picture6.jpg,1,neutral,neutral,picture1.jpg,picture1.jpg,1,neutral,neutral,picture10.jpg,picture10.jpg,1,threat,threat,picture4.jpg,picture4.jpg,0,threat,threat,picture2.jpg,picture1.jpg,1,neutral,neutral,picture4.jpg,picture4.jpg
a3eqr9c0l23o6e,1,22,107130,NA,threat,1,threat,1,NA,NA,NA,NA,NA,NA,NA,NA,NA,NA,NA,NA,NA,NA,NA,NA,NA,NA,NA,NA,NA,NA,NA,NA,NA,NA,NA,NA,NA,NA,NA,NA,NA,NA,NA,NA,NA,NA,NA,NA,NA,NA,NA,NA,NA,NA,NA,NA,NA,NA
a3eqr9c0l23o6e,1,22,110231,8,NA,NA,NA,NA,1,neutral,neutral,picture9.jpg,picture9.jpg,1,threat,threat,picture3.jpg,picture3.jpg,0,neutral,neutral,picture6.jpg,picture7.jpg,1,threat,threat,picture2.jpg,picture2.jpg,0,neutral,neutral,picture7.jpg,picture6.jpg,1,neutral,neutral,picture1.jpg,picture1.jpg,1,neutral,neutral,picture10.jpg,picture10.jpg,1,threat,threat,picture4.jpg,picture4.jpg,1,threat,threat,picture1.jpg,picture1.jpg,1,neutral,neutral,picture4.jpg,picture4.jpg
a3eqr9c0l23o6e,1,23,110231,NA,neutral,1,neutral,1,NA,NA,NA,NA,NA,NA,NA,NA,NA,NA,NA,NA,NA,NA,NA,NA,NA,NA,NA,NA,NA,NA,NA,NA,NA,NA,NA,NA,NA,NA,NA,NA,NA,NA,NA,NA,NA,NA,NA,NA,NA,NA,NA,NA,NA,NA,NA,NA,NA,NA
a3eqr9c0l23o6e,1,23,113664,10,NA,NA,NA,NA,1,neutral,neutral,picture9.jpg,picture9.jpg,1,threat,threat,picture3.jpg,picture3.jpg,1,neutral,neutral,picture7.jpg,picture7.jpg,1,threat,threat,picture2.jpg,picture2.jpg,1,neutral,neutral,picture6.jpg,picture6.jpg,1,neutral,neutral,picture1.jpg,picture1.jpg,1,neutral,neutral,picture10.jpg,picture10.jpg,1,threat,threat,picture4.jpg,picture4.jpg,1,threat,threat,picture1.jpg,picture1.jpg,1,neutral,neutral,picture4.jpg,picture4.jpg
a3eqr9c0l23o6e,2,1,-9742,NA,neutral,0,NA,NA,NA,NA,NA,NA,NA,NA,NA,NA,NA,NA,NA,NA,NA,NA,NA,NA,NA,NA,NA,NA,NA,NA,NA,NA,NA,NA,NA,NA,NA,NA,NA,NA,NA,NA,NA,NA,NA,NA,NA,NA,NA,NA,NA,NA,NA,NA,NA,NA,NA,NA
a3eqr9c0l23o6e,2,1,-9742,NA,neutral,0,NA,NA,NA,NA,NA,NA,NA,NA,NA,NA,NA,NA,NA,NA,NA,NA,NA,NA,NA,NA,NA,NA,NA,NA,NA,NA,NA,NA,NA,NA,NA,NA,NA,NA,NA,NA,NA,NA,NA,NA,NA,NA,NA,NA,NA,NA,NA,NA,NA,NA,NA,NA
a3eqr9c0l23o6e,2,1,-9742,NA,threat,0,NA,NA,NA,NA,NA,NA,NA,NA,NA,NA,NA,NA,NA,NA,NA,NA,NA,NA,NA,NA,NA,NA,NA,NA,NA,NA,NA,NA,NA,NA,NA,NA,NA,NA,NA,NA,NA,NA,NA,NA,NA,NA,NA,NA,NA,NA,NA,NA,NA,NA,NA,NA
a3eqr9c0l23o6e,2,1,-9742,NA,threat,0,NA,NA,NA,NA,NA,NA,NA,NA,NA,NA,NA,NA,NA,NA,NA,NA,NA,NA,NA,NA,NA,NA,NA,NA,NA,NA,NA,NA,NA,NA,NA,NA,NA,NA,NA,NA,NA,NA,NA,NA,NA,NA,NA,NA,NA,NA,NA,NA,NA,NA,NA,NA
a3eqr9c0l23o6e,2,1,-9742,NA,threat,0,NA,NA,NA,NA,NA,NA,NA,NA,NA,NA,NA,NA,NA,NA,NA,NA,NA,NA,NA,NA,NA,NA,NA,NA,NA,NA,NA,NA,NA,NA,NA,NA,NA,NA,NA,NA,NA,NA,NA,NA,NA,NA,NA,NA,NA,NA,NA,NA,NA,NA,NA,NA
a3eqr9c0l23o6e,2,1,-9742,NA,threat,1,NA,NA,NA,NA,NA,NA,NA,NA,NA,NA,NA,NA,NA,NA,NA,NA,NA,NA,NA,NA,NA,NA,NA,NA,NA,NA,NA,NA,NA,NA,NA,NA,NA,NA,NA,NA,NA,NA,NA,NA,NA,NA,NA,NA,NA,NA,NA,NA,NA,NA,NA,NA
a3eqr9c0l23o6e,2,1,-9742,NA,neutral,1,threat,0,NA,NA,NA,NA,NA,NA,NA,NA,NA,NA,NA,NA,NA,NA,NA,NA,NA,NA,NA,NA,NA,NA,NA,NA,NA,NA,NA,NA,NA,NA,NA,NA,NA,NA,NA,NA,NA,NA,NA,NA,NA,NA,NA,NA,NA,NA,NA,NA,NA,NA
a3eqr9c0l23o6e,2,1,-9742,NA,neutral,0,NA,NA,NA,NA,NA,NA,NA,NA,NA,NA,NA,NA,NA,NA,NA,NA,NA,NA,NA,NA,NA,NA,NA,NA,NA,NA,NA,NA,NA,NA,NA,NA,NA,NA,NA,NA,NA,NA,NA,NA,NA,NA,NA,NA,NA,NA,NA,NA,NA,NA,NA,NA
a3eqr9c0l23o6e,2,1,-9742,NA,threat,0,NA,NA,NA,NA,NA,NA,NA,NA,NA,NA,NA,NA,NA,NA,NA,NA,NA,NA,NA,NA,NA,NA,NA,NA,NA,NA,NA,NA,NA,NA,NA,NA,NA,NA,NA,NA,NA,NA,NA,NA,NA,NA,NA,NA,NA,NA,NA,NA,NA,NA,NA,NA
a3eqr9c0l23o6e,2,1,-9742,NA,neutral,0,NA,NA,NA,NA,NA,NA,NA,NA,NA,NA,NA,NA,NA,NA,NA,NA,NA,NA,NA,NA,NA,NA,NA,NA,NA,NA,NA,NA,NA,NA,NA,NA,NA,NA,NA,NA,NA,NA,NA,NA,NA,NA,NA,NA,NA,NA,NA,NA,NA,NA,NA,NA
a3eqr9c0l23o6e,2,1,-9742,NA,neutral,0,NA,NA,NA,NA,NA,NA,NA,NA,NA,NA,NA,NA,NA,NA,NA,NA,NA,NA,NA,NA,NA,NA,NA,NA,NA,NA,NA,NA,NA,NA,NA,NA,NA,NA,NA,NA,NA,NA,NA,NA,NA,NA,NA,NA,NA,NA,NA,NA,NA,NA,NA,NA
a3eqr9c0l23o6e,2,1,30851,2,NA,NA,NA,NA,0,threat,neutral,picture3.jpg,picture9.jpg,0,neutral,threat,picture1.jpg,picture3.jpg,0,neutral,neutral,picture6.jpg,picture7.jpg,0,neutral,threat,picture10.jpg,picture2.jpg,0,neutral,neutral,picture7.jpg,picture6.jpg,0,threat,neutral,picture1.jpg,picture1.jpg,0,threat,neutral,picture2.jpg,picture10.jpg,1,threat,threat,picture4.jpg,picture4.jpg,0,neutral,threat,picture9.jpg,picture1.jpg,1,neutral,neutral,picture4.jpg,picture4.jpg
a3eqr9c0l23o6e,2,2,30851,NA,neutral,0,threat,0,NA,NA,NA,NA,NA,NA,NA,NA,NA,NA,NA,NA,NA,NA,NA,NA,NA,NA,NA,NA,NA,NA,NA,NA,NA,NA,NA,NA,NA,NA,NA,NA,NA,NA,NA,NA,NA,NA,NA,NA,NA,NA,NA,NA,NA,NA,NA,NA,NA,NA
a3eqr9c0l23o6e,2,2,36805,2,NA,NA,NA,NA,0,threat,neutral,picture3.jpg,picture9.jpg,0,neutral,threat,picture1.jpg,picture3.jpg,0,neutral,neutral,picture6.jpg,picture7.jpg,0,threat,threat,picture1.jpg,picture2.jpg,0,neutral,neutral,picture7.jpg,picture6.jpg,0,neutral,neutral,picture10.jpg,picture1.jpg,0,threat,neutral,picture2.jpg,picture10.jpg,1,threat,threat,picture4.jpg,picture4.jpg,0,neutral,threat,picture9.jpg,picture1.jpg,1,neutral,neutral,picture4.jpg,picture4.jpg
a3eqr9c0l23o6e,2,3,36805,NA,neutral,0,neutral,0,NA,NA,NA,NA,NA,NA,NA,NA,NA,NA,NA,NA,NA,NA,NA,NA,NA,NA,NA,NA,NA,NA,NA,NA,NA,NA,NA,NA,NA,NA,NA,NA,NA,NA,NA,NA,NA,NA,NA,NA,NA,NA,NA,NA,NA,NA,NA,NA,NA,NA
a3eqr9c0l23o6e,2,3,39094,2,NA,NA,NA,NA,0,threat,neutral,picture3.jpg,picture9.jpg,0,neutral,threat,picture1.jpg,picture3.jpg,0,neutral,neutral,picture6.jpg,picture7.jpg,0,threat,threat,picture1.jpg,picture2.jpg,0,neutral,neutral,picture7.jpg,picture6.jpg,0,neutral,neutral,picture9.jpg,picture1.jpg,0,threat,neutral,picture2.jpg,picture10.jpg,1,threat,threat,picture4.jpg,picture4.jpg,0,neutral,threat,picture10.jpg,picture1.jpg,1,neutral,neutral,picture4.jpg,picture4.jpg
a3eqr9c0l23o6e,2,4,39094,NA,neutral,1,threat,0,NA,NA,NA,NA,NA,NA,NA,NA,NA,NA,NA,NA,NA,NA,NA,NA,NA,NA,NA,NA,NA,NA,NA,NA,NA,NA,NA,NA,NA,NA,NA,NA,NA,NA,NA,NA,NA,NA,NA,NA,NA,NA,NA,NA,NA,NA,NA,NA,NA,NA
a3eqr9c0l23o6e,2,4,41254,3,NA,NA,NA,NA,0,threat,neutral,picture3.jpg,picture9.jpg,0,neutral,threat,picture1.jpg,picture3.jpg,0,neutral,neutral,picture6.jpg,picture7.jpg,0,threat,threat,picture1.jpg,picture2.jpg,0,neutral,neutral,picture7.jpg,picture6.jpg,0,neutral,neutral,picture9.jpg,picture1.jpg,1,neutral,neutral,picture10.jpg,picture10.jpg,1,threat,threat,picture4.jpg,picture4.jpg,0,threat,threat,picture2.jpg,picture1.jpg,1,neutral,neutral,picture4.jpg,picture4.jpg
a3eqr9c0l23o6e,2,5,41254,NA,threat,0,neutral,0,NA,NA,NA,NA,NA,NA,NA,NA,NA,NA,NA,NA,NA,NA,NA,NA,NA,NA,NA,NA,NA,NA,NA,NA,NA,NA,NA,NA,NA,NA,NA,NA,NA,NA,NA,NA,NA,NA,NA,NA,NA,NA,NA,NA,NA,NA,NA,NA,NA,NA
a3eqr9c0l23o6e,2,5,46752,3,NA,NA,NA,NA,0,threat,neutral,picture3.jpg,picture9.jpg,0,neutral,threat,picture1.jpg,picture3.jpg,0,neutral,neutral,picture6.jpg,picture7.jpg,0,threat,threat,picture1.jpg,picture2.jpg,0,threat,neutral,picture2.jpg,picture6.jpg,0,neutral,neutral,picture9.jpg,picture1.jpg,1,neutral,neutral,picture10.jpg,picture10.jpg,1,threat,threat,picture4.jpg,picture4.jpg,0,neutral,threat,picture7.jpg,picture1.jpg,1,neutral,neutral,picture4.jpg,picture4.jpg
a3eqr9c0l23o6e,2,6,46752,NA,threat,0,threat,0,NA,NA,NA,NA,NA,NA,NA,NA,NA,NA,NA,NA,NA,NA,NA,NA,NA,NA,NA,NA,NA,NA,NA,NA,NA,NA,NA,NA,NA,NA,NA,NA,NA,NA,NA,NA,NA,NA,NA,NA,NA,NA,NA,NA,NA,NA,NA,NA,NA,NA
a3eqr9c0l23o6e,2,6,48516,3,NA,NA,NA,NA,0,threat,neutral,picture2.jpg,picture9.jpg,0,neutral,threat,picture1.jpg,picture3.jpg,0,neutral,neutral,picture6.jpg,picture7.jpg,0,threat,threat,picture1.jpg,picture2.jpg,0,threat,neutral,picture3.jpg,picture6.jpg,0,neutral,neutral,picture9.jpg,picture1.jpg,1,neutral,neutral,picture10.jpg,picture10.jpg,1,threat,threat,picture4.jpg,picture4.jpg,0,neutral,threat,picture7.jpg,picture1.jpg,1,neutral,neutral,picture4.jpg,picture4.jpg
a3eqr9c0l23o6e,2,7,48516,NA,threat,1,threat,0,NA,NA,NA,NA,NA,NA,NA,NA,NA,NA,NA,NA,NA,NA,NA,NA,NA,NA,NA,NA,NA,NA,NA,NA,NA,NA,NA,NA,NA,NA,NA,NA,NA,NA,NA,NA,NA,NA,NA,NA,NA,NA,NA,NA,NA,NA,NA,NA,NA,NA
a3eqr9c0l23o6e,2,7,50335,4,NA,NA,NA,NA,0,threat,neutral,picture1.jpg,picture9.jpg,0,neutral,threat,picture1.jpg,picture3.jpg,0,neutral,neutral,picture6.jpg,picture7.jpg,1,threat,threat,picture2.jpg,picture2.jpg,0,threat,neutral,picture3.jpg,picture6.jpg,0,neutral,neutral,picture9.jpg,picture1.jpg,1,neutral,neutral,picture10.jpg,picture10.jpg,1,threat,threat,picture4.jpg,picture4.jpg,0,neutral,threat,picture7.jpg,picture1.jpg,1,neutral,neutral,picture4.jpg,picture4.jpg
a3eqr9c0l23o6e,2,8,50335,NA,neutral,0,threat,0,NA,NA,NA,NA,NA,NA,NA,NA,NA,NA,NA,NA,NA,NA,NA,NA,NA,NA,NA,NA,NA,NA,NA,NA,NA,NA,NA,NA,NA,NA,NA,NA,NA,NA,NA,NA,NA,NA,NA,NA,NA,NA,NA,NA,NA,NA,NA,NA,NA,NA
a3eqr9c0l23o6e,2,8,53603,4,NA,NA,NA,NA,0,neutral,neutral,picture6.jpg,picture9.jpg,0,neutral,threat,picture1.jpg,picture3.jpg,0,threat,neutral,picture1.jpg,picture7.jpg,1,threat,threat,picture2.jpg,picture2.jpg,0,threat,neutral,picture3.jpg,picture6.jpg,0,neutral,neutral,picture9.jpg,picture1.jpg,1,neutral,neutral,picture10.jpg,picture10.jpg,1,threat,threat,picture4.jpg,picture4.jpg,0,neutral,threat,picture7.jpg,picture1.jpg,1,neutral,neutral,picture4.jpg,picture4.jpg
a3eqr9c0l23o6e,2,9,53603,NA,neutral,0,neutral,0,NA,NA,NA,NA,NA,NA,NA,NA,NA,NA,NA,NA,NA,NA,NA,NA,NA,NA,NA,NA,NA,NA,NA,NA,NA,NA,NA,NA,NA,NA,NA,NA,NA,NA,NA,NA,NA,NA,NA,NA,NA,NA,NA,NA,NA,NA,NA,NA,NA,NA
a3eqr9c0l23o6e,2,9,55818,4,NA,NA,NA,NA,0,neutral,neutral,picture1.jpg,picture9.jpg,0,neutral,threat,picture6.jpg,picture3.jpg,0,threat,neutral,picture1.jpg,picture7.jpg,1,threat,threat,picture2.jpg,picture2.jpg,0,threat,neutral,picture3.jpg,picture6.jpg,0,neutral,neutral,picture9.jpg,picture1.jpg,1,neutral,neutral,picture10.jpg,picture10.jpg,1,threat,threat,picture4.jpg,picture4.jpg,0,neutral,threat,picture7.jpg,picture1.jpg,1,neutral,neutral,picture4.jpg,picture4.jpg
a3eqr9c0l23o6e,2,10,55818,NA,neutral,0,threat,0,NA,NA,NA,NA,NA,NA,NA,NA,NA,NA,NA,NA,NA,NA,NA,NA,NA,NA,NA,NA,NA,NA,NA,NA,NA,NA,NA,NA,NA,NA,NA,NA,NA,NA,NA,NA,NA,NA,NA,NA,NA,NA,NA,NA,NA,NA,NA,NA,NA,NA
a3eqr9c0l23o6e,2,10,57621,4,NA,NA,NA,NA,0,threat,neutral,picture3.jpg,picture9.jpg,0,neutral,threat,picture6.jpg,picture3.jpg,0,threat,neutral,picture1.jpg,picture7.jpg,1,threat,threat,picture2.jpg,picture2.jpg,0,neutral,neutral,picture1.jpg,picture6.jpg,0,neutral,neutral,picture9.jpg,picture1.jpg,1,neutral,neutral,picture10.jpg,picture10.jpg,1,threat,threat,picture4.jpg,picture4.jpg,0,neutral,threat,picture7.jpg,picture1.jpg,1,neutral,neutral,picture4.jpg,picture4.jpg
a3eqr9c0l23o6e,2,11,57621,NA,neutral,0,neutral,0,NA,NA,NA,NA,NA,NA,NA,NA,NA,NA,NA,NA,NA,NA,NA,NA,NA,NA,NA,NA,NA,NA,NA,NA,NA,NA,NA,NA,NA,NA,NA,NA,NA,NA,NA,NA,NA,NA,NA,NA,NA,NA,NA,NA,NA,NA,NA,NA,NA,NA
a3eqr9c0l23o6e,2,11,60095,4,NA,NA,NA,NA,0,threat,neutral,picture3.jpg,picture9.jpg,0,neutral,threat,picture7.jpg,picture3.jpg,0,threat,neutral,picture1.jpg,picture7.jpg,1,threat,threat,picture2.jpg,picture2.jpg,0,neutral,neutral,picture1.jpg,picture6.jpg,0,neutral,neutral,picture9.jpg,picture1.jpg,1,neutral,neutral,picture10.jpg,picture10.jpg,1,threat,threat,picture4.jpg,picture4.jpg,0,neutral,threat,picture6.jpg,picture1.jpg,1,neutral,neutral,picture4.jpg,picture4.jpg
a3eqr9c0l23o6e,2,12,60095,NA,threat,1,neutral,0,NA,NA,NA,NA,NA,NA,NA,NA,NA,NA,NA,NA,NA,NA,NA,NA,NA,NA,NA,NA,NA,NA,NA,NA,NA,NA,NA,NA,NA,NA,NA,NA,NA,NA,NA,NA,NA,NA,NA,NA,NA,NA,NA,NA,NA,NA,NA,NA,NA,NA
a3eqr9c0l23o6e,2,12,62113,5,NA,NA,NA,NA,0,threat,neutral,picture3.jpg,picture9.jpg,0,neutral,threat,picture7.jpg,picture3.jpg,0,neutral,neutral,picture6.jpg,picture7.jpg,1,threat,threat,picture2.jpg,picture2.jpg,0,neutral,neutral,picture1.jpg,picture6.jpg,0,neutral,neutral,picture9.jpg,picture1.jpg,1,neutral,neutral,picture10.jpg,picture10.jpg,1,threat,threat,picture4.jpg,picture4.jpg,1,threat,threat,picture1.jpg,picture1.jpg,1,neutral,neutral,picture4.jpg,picture4.jpg
a3eqr9c0l23o6e,2,13,62113,NA,neutral,0,neutral,1,NA,NA,NA,NA,NA,NA,NA,NA,NA,NA,NA,NA,NA,NA,NA,NA,NA,NA,NA,NA,NA,NA,NA,NA,NA,NA,NA,NA,NA,NA,NA,NA,NA,NA,NA,NA,NA,NA,NA,NA,NA,NA,NA,NA,NA,NA,NA,NA,NA,NA
a3eqr9c0l23o6e,2,13,71840,6,NA,NA,NA,NA,0,threat,neutral,picture3.jpg,picture9.jpg,0,neutral,threat,picture7.jpg,picture3.jpg,0,neutral,neutral,picture1.jpg,picture7.jpg,1,threat,threat,picture2.jpg,picture2.jpg,1,neutral,neutral,picture6.jpg,picture6.jpg,0,neutral,neutral,picture9.jpg,picture1.jpg,1,neutral,neutral,picture10.jpg,picture10.jpg,1,threat,threat,picture4.jpg,picture4.jpg,1,threat,threat,picture1.jpg,picture1.jpg,1,neutral,neutral,picture4.jpg,picture4.jpg
a3eqr9c0l23o6e,2,14,71840,NA,neutral,1,NA,NA,NA,NA,NA,NA,NA,NA,NA,NA,NA,NA,NA,NA,NA,NA,NA,NA,NA,NA,NA,NA,NA,NA,NA,NA,NA,NA,NA,NA,NA,NA,NA,NA,NA,NA,NA,NA,NA,NA,NA,NA,NA,NA,NA,NA,NA,NA,NA,NA,NA,NA
a3eqr9c0l23o6e,2,14,71840,NA,neutral,1,neutral,0,NA,NA,NA,NA,NA,NA,NA,NA,NA,NA,NA,NA,NA,NA,NA,NA,NA,NA,NA,NA,NA,NA,NA,NA,NA,NA,NA,NA,NA,NA,NA,NA,NA,NA,NA,NA,NA,NA,NA,NA,NA,NA,NA,NA,NA,NA,NA,NA,NA,NA
a3eqr9c0l23o6e,2,14,75593,NA,neutral,0,NA,NA,NA,NA,NA,NA,NA,NA,NA,NA,NA,NA,NA,NA,NA,NA,NA,NA,NA,NA,NA,NA,NA,NA,NA,NA,NA,NA,NA,NA,NA,NA,NA,NA,NA,NA,NA,NA,NA,NA,NA,NA,NA,NA,NA,NA,NA,NA,NA,NA,NA,NA
a3eqr9c0l23o6e,2,14,78034,7,NA,NA,NA,NA,0,threat,neutral,picture3.jpg,picture9.jpg,0,neutral,threat,picture1.jpg,picture3.jpg,1,neutral,neutral,picture7.jpg,picture7.jpg,1,threat,threat,picture2.jpg,picture2.jpg,1,neutral,neutral,picture6.jpg,picture6.jpg,0,neutral,neutral,picture9.jpg,picture1.jpg,1,neutral,neutral,picture10.jpg,picture10.jpg,1,threat,threat,picture4.jpg,picture4.jpg,1,threat,threat,picture1.jpg,picture1.jpg,1,neutral,neutral,picture4.jpg,picture4.jpg
a3eqr9c0l23o6e,2,15,78034,NA,threat,1,neutral,0,NA,NA,NA,NA,NA,NA,NA,NA,NA,NA,NA,NA,NA,NA,NA,NA,NA,NA,NA,NA,NA,NA,NA,NA,NA,NA,NA,NA,NA,NA,NA,NA,NA,NA,NA,NA,NA,NA,NA,NA,NA,NA,NA,NA,NA,NA,NA,NA,NA,NA
a3eqr9c0l23o6e,2,15,80431,8,NA,NA,NA,NA,0,neutral,neutral,picture1.jpg,picture9.jpg,1,threat,threat,picture3.jpg,picture3.jpg,1,neutral,neutral,picture7.jpg,picture7.jpg,1,threat,threat,picture2.jpg,picture2.jpg,1,neutral,neutral,picture6.jpg,picture6.jpg,0,neutral,neutral,picture9.jpg,picture1.jpg,1,neutral,neutral,picture10.jpg,picture10.jpg,1,threat,threat,picture4.jpg,picture4.jpg,1,threat,threat,picture1.jpg,picture1.jpg,1,neutral,neutral,picture4.jpg,picture4.jpg
a3eqr9c0l23o6e,2,16,80431,NA,neutral,1,neutral,1,NA,NA,NA,NA,NA,NA,NA,NA,NA,NA,NA,NA,NA,NA,NA,NA,NA,NA,NA,NA,NA,NA,NA,NA,NA,NA,NA,NA,NA,NA,NA,NA,NA,NA,NA,NA,NA,NA,NA,NA,NA,NA,NA,NA,NA,NA,NA,NA,NA,NA
a3eqr9c0l23o6e,2,16,84391,10,NA,NA,NA,NA,1,neutral,neutral,picture9.jpg,picture9.jpg,1,threat,threat,picture3.jpg,picture3.jpg,1,neutral,neutral,picture7.jpg,picture7.jpg,1,threat,threat,picture2.jpg,picture2.jpg,1,neutral,neutral,picture6.jpg,picture6.jpg,1,neutral,neutral,picture1.jpg,picture1.jpg,1,neutral,neutral,picture10.jpg,picture10.jpg,1,threat,threat,picture4.jpg,picture4.jpg,1,threat,threat,picture1.jpg,picture1.jpg,1,neutral,neutral,picture4.jpg,picture4.jpg
a3eqr9c0l23o6e,3,1,-15932,NA,neutral,1,NA,NA,NA,NA,NA,NA,NA,NA,NA,NA,NA,NA,NA,NA,NA,NA,NA,NA,NA,NA,NA,NA,NA,NA,NA,NA,NA,NA,NA,NA,NA,NA,NA,NA,NA,NA,NA,NA,NA,NA,NA,NA,NA,NA,NA,NA,NA,NA,NA,NA,NA,NA
a3eqr9c0l23o6e,3,1,-15932,NA,threat,1,NA,NA,NA,NA,NA,NA,NA,NA,NA,NA,NA,NA,NA,NA,NA,NA,NA,NA,NA,NA,NA,NA,NA,NA,NA,NA,NA,NA,NA,NA,NA,NA,NA,NA,NA,NA,NA,NA,NA,NA,NA,NA,NA,NA,NA,NA,NA,NA,NA,NA,NA,NA
a3eqr9c0l23o6e,3,1,-15932,NA,neutral,1,NA,NA,NA,NA,NA,NA,NA,NA,NA,NA,NA,NA,NA,NA,NA,NA,NA,NA,NA,NA,NA,NA,NA,NA,NA,NA,NA,NA,NA,NA,NA,NA,NA,NA,NA,NA,NA,NA,NA,NA,NA,NA,NA,NA,NA,NA,NA,NA,NA,NA,NA,NA
a3eqr9c0l23o6e,3,1,-15932,NA,neutral,1,NA,NA,NA,NA,NA,NA,NA,NA,NA,NA,NA,NA,NA,NA,NA,NA,NA,NA,NA,NA,NA,NA,NA,NA,NA,NA,NA,NA,NA,NA,NA,NA,NA,NA,NA,NA,NA,NA,NA,NA,NA,NA,NA,NA,NA,NA,NA,NA,NA,NA,NA,NA
a3eqr9c0l23o6e,3,1,-15932,NA,neutral,0,NA,NA,NA,NA,NA,NA,NA,NA,NA,NA,NA,NA,NA,NA,NA,NA,NA,NA,NA,NA,NA,NA,NA,NA,NA,NA,NA,NA,NA,NA,NA,NA,NA,NA,NA,NA,NA,NA,NA,NA,NA,NA,NA,NA,NA,NA,NA,NA,NA,NA,NA,NA
a3eqr9c0l23o6e,3,1,-15932,NA,neutral,1,NA,NA,NA,NA,NA,NA,NA,NA,NA,NA,NA,NA,NA,NA,NA,NA,NA,NA,NA,NA,NA,NA,NA,NA,NA,NA,NA,NA,NA,NA,NA,NA,NA,NA,NA,NA,NA,NA,NA,NA,NA,NA,NA,NA,NA,NA,NA,NA,NA,NA,NA,NA
a3eqr9c0l23o6e,3,1,-15932,NA,threat,0,NA,NA,NA,NA,NA,NA,NA,NA,NA,NA,NA,NA,NA,NA,NA,NA,NA,NA,NA,NA,NA,NA,NA,NA,NA,NA,NA,NA,NA,NA,NA,NA,NA,NA,NA,NA,NA,NA,NA,NA,NA,NA,NA,NA,NA,NA,NA,NA,NA,NA,NA,NA
a3eqr9c0l23o6e,3,1,-15932,NA,threat,1,NA,NA,NA,NA,NA,NA,NA,NA,NA,NA,NA,NA,NA,NA,NA,NA,NA,NA,NA,NA,NA,NA,NA,NA,NA,NA,NA,NA,NA,NA,NA,NA,NA,NA,NA,NA,NA,NA,NA,NA,NA,NA,NA,NA,NA,NA,NA,NA,NA,NA,NA,NA
a3eqr9c0l23o6e,3,1,-15932,NA,neutral,0,NA,NA,NA,NA,NA,NA,NA,NA,NA,NA,NA,NA,NA,NA,NA,NA,NA,NA,NA,NA,NA,NA,NA,NA,NA,NA,NA,NA,NA,NA,NA,NA,NA,NA,NA,NA,NA,NA,NA,NA,NA,NA,NA,NA,NA,NA,NA,NA,NA,NA,NA,NA
a3eqr9c0l23o6e,3,1,-15932,NA,threat,1,NA,NA,NA,NA,NA,NA,NA,NA,NA,NA,NA,NA,NA,NA,NA,NA,NA,NA,NA,NA,NA,NA,NA,NA,NA,NA,NA,NA,NA,NA,NA,NA,NA,NA,NA,NA,NA,NA,NA,NA,NA,NA,NA,NA,NA,NA,NA,NA,NA,NA,NA,NA
a3eqr9c0l23o6e,3,1,24940,7,NA,NA,NA,NA,0,neutral,neutral,picture6.jpg,picture9.jpg,1,threat,threat,picture3.jpg,picture3.jpg,1,neutral,neutral,picture7.jpg,picture7.jpg,0,neutral,threat,picture9.jpg,picture2.jpg,0,threat,neutral,picture2.jpg,picture6.jpg,1,neutral,neutral,picture1.jpg,picture1.jpg,1,neutral,neutral,picture10.jpg,picture10.jpg,1,threat,threat,picture4.jpg,picture4.jpg,1,threat,threat,picture1.jpg,picture1.jpg,1,neutral,neutral,picture4.jpg,picture4.jpg
a3eqr9c0l23o6e,3,2,24940,NA,neutral,1,threat,0,NA,NA,NA,NA,NA,NA,NA,NA,NA,NA,NA,NA,NA,NA,NA,NA,NA,NA,NA,NA,NA,NA,NA,NA,NA,NA,NA,NA,NA,NA,NA,NA,NA,NA,NA,NA,NA,NA,NA,NA,NA,NA,NA,NA,NA,NA,NA,NA,NA,NA
a3eqr9c0l23o6e,3,2,28075,8,NA,NA,NA,NA,0,threat,neutral,picture2.jpg,picture9.jpg,1,threat,threat,picture3.jpg,picture3.jpg,1,neutral,neutral,picture7.jpg,picture7.jpg,0,neutral,threat,picture9.jpg,picture2.jpg,1,neutral,neutral,picture6.jpg,picture6.jpg,1,neutral,neutral,picture1.jpg,picture1.jpg,1,neutral,neutral,picture10.jpg,picture10.jpg,1,threat,threat,picture4.jpg,picture4.jpg,1,threat,threat,picture1.jpg,picture1.jpg,1,neutral,neutral,picture4.jpg,picture4.jpg
a3eqr9c0l23o6e,3,3,28075,NA,neutral,1,threat,1,NA,NA,NA,NA,NA,NA,NA,NA,NA,NA,NA,NA,NA,NA,NA,NA,NA,NA,NA,NA,NA,NA,NA,NA,NA,NA,NA,NA,NA,NA,NA,NA,NA,NA,NA,NA,NA,NA,NA,NA,NA,NA,NA,NA,NA,NA,NA,NA,NA,NA
a3eqr9c0l23o6e,3,3,33185,10,NA,NA,NA,NA,1,neutral,neutral,picture9.jpg,picture9.jpg,1,threat,threat,picture3.jpg,picture3.jpg,1,neutral,neutral,picture7.jpg,picture7.jpg,1,threat,threat,picture2.jpg,picture2.jpg,1,neutral,neutral,picture6.jpg,picture6.jpg,1,neutral,neutral,picture1.jpg,picture1.jpg,1,neutral,neutral,picture10.jpg,picture10.jpg,1,threat,threat,picture4.jpg,picture4.jpg,1,threat,threat,picture1.jpg,picture1.jpg,1,neutral,neutral,picture4.jpg,picture4.jpg
a3eqr9c0l23o6e,4,1,-952,NA,neutral,1,NA,NA,NA,NA,NA,NA,NA,NA,NA,NA,NA,NA,NA,NA,NA,NA,NA,NA,NA,NA,NA,NA,NA,NA,NA,NA,NA,NA,NA,NA,NA,NA,NA,NA,NA,NA,NA,NA,NA,NA,NA,NA,NA,NA,NA,NA,NA,NA,NA,NA,NA,NA
a3eqr9c0l23o6e,4,1,-952,NA,neutral,1,NA,NA,NA,NA,NA,NA,NA,NA,NA,NA,NA,NA,NA,NA,NA,NA,NA,NA,NA,NA,NA,NA,NA,NA,NA,NA,NA,NA,NA,NA,NA,NA,NA,NA,NA,NA,NA,NA,NA,NA,NA,NA,NA,NA,NA,NA,NA,NA,NA,NA,NA,NA
a3eqr9c0l23o6e,4,1,-952,NA,threat,1,NA,NA,NA,NA,NA,NA,NA,NA,NA,NA,NA,NA,NA,NA,NA,NA,NA,NA,NA,NA,NA,NA,NA,NA,NA,NA,NA,NA,NA,NA,NA,NA,NA,NA,NA,NA,NA,NA,NA,NA,NA,NA,NA,NA,NA,NA,NA,NA,NA,NA,NA,NA
a3eqr9c0l23o6e,4,1,-952,NA,threat,1,NA,NA,NA,NA,NA,NA,NA,NA,NA,NA,NA,NA,NA,NA,NA,NA,NA,NA,NA,NA,NA,NA,NA,NA,NA,NA,NA,NA,NA,NA,NA,NA,NA,NA,NA,NA,NA,NA,NA,NA,NA,NA,NA,NA,NA,NA,NA,NA,NA,NA,NA,NA
a3eqr9c0l23o6e,4,1,-952,NA,neutral,1,NA,NA,NA,NA,NA,NA,NA,NA,NA,NA,NA,NA,NA,NA,NA,NA,NA,NA,NA,NA,NA,NA,NA,NA,NA,NA,NA,NA,NA,NA,NA,NA,NA,NA,NA,NA,NA,NA,NA,NA,NA,NA,NA,NA,NA,NA,NA,NA,NA,NA,NA,NA
a3eqr9c0l23o6e,4,1,-952,NA,threat,1,NA,NA,NA,NA,NA,NA,NA,NA,NA,NA,NA,NA,NA,NA,NA,NA,NA,NA,NA,NA,NA,NA,NA,NA,NA,NA,NA,NA,NA,NA,NA,NA,NA,NA,NA,NA,NA,NA,NA,NA,NA,NA,NA,NA,NA,NA,NA,NA,NA,NA,NA,NA
a3eqr9c0l23o6e,4,1,-952,NA,neutral,1,NA,NA,NA,NA,NA,NA,NA,NA,NA,NA,NA,NA,NA,NA,NA,NA,NA,NA,NA,NA,NA,NA,NA,NA,NA,NA,NA,NA,NA,NA,NA,NA,NA,NA,NA,NA,NA,NA,NA,NA,NA,NA,NA,NA,NA,NA,NA,NA,NA,NA,NA,NA
a3eqr9c0l23o6e,4,1,-952,NA,neutral,1,NA,NA,NA,NA,NA,NA,NA,NA,NA,NA,NA,NA,NA,NA,NA,NA,NA,NA,NA,NA,NA,NA,NA,NA,NA,NA,NA,NA,NA,NA,NA,NA,NA,NA,NA,NA,NA,NA,NA,NA,NA,NA,NA,NA,NA,NA,NA,NA,NA,NA,NA,NA
a3eqr9c0l23o6e,4,1,-952,NA,neutral,0,NA,NA,NA,NA,NA,NA,NA,NA,NA,NA,NA,NA,NA,NA,NA,NA,NA,NA,NA,NA,NA,NA,NA,NA,NA,NA,NA,NA,NA,NA,NA,NA,NA,NA,NA,NA,NA,NA,NA,NA,NA,NA,NA,NA,NA,NA,NA,NA,NA,NA,NA,NA
a3eqr9c0l23o6e,4,1,-952,NA,threat,0,NA,NA,NA,NA,NA,NA,NA,NA,NA,NA,NA,NA,NA,NA,NA,NA,NA,NA,NA,NA,NA,NA,NA,NA,NA,NA,NA,NA,NA,NA,NA,NA,NA,NA,NA,NA,NA,NA,NA,NA,NA,NA,NA,NA,NA,NA,NA,NA,NA,NA,NA,NA
a3eqr9c0l23o6e,4,1,27520,8,NA,NA,NA,NA,1,neutral,neutral,picture9.jpg,picture9.jpg,0,neutral,threat,picture7.jpg,picture3.jpg,0,threat,neutral,picture3.jpg,picture7.jpg,1,threat,threat,picture2.jpg,picture2.jpg,1,neutral,neutral,picture6.jpg,picture6.jpg,1,neutral,neutral,picture1.jpg,picture1.jpg,1,neutral,neutral,picture10.jpg,picture10.jpg,1,threat,threat,picture4.jpg,picture4.jpg,1,threat,threat,picture1.jpg,picture1.jpg,1,neutral,neutral,picture4.jpg,picture4.jpg
a3eqr9c0l23o6e,4,2,27520,NA,threat,1,neutral,1,NA,NA,NA,NA,NA,NA,NA,NA,NA,NA,NA,NA,NA,NA,NA,NA,NA,NA,NA,NA,NA,NA,NA,NA,NA,NA,NA,NA,NA,NA,NA,NA,NA,NA,NA,NA,NA,NA,NA,NA,NA,NA,NA,NA,NA,NA,NA,NA,NA,NA
a3eqr9c0l23o6e,4,2,36011,10,NA,NA,NA,NA,1,neutral,neutral,picture9.jpg,picture9.jpg,1,threat,threat,picture3.jpg,picture3.jpg,1,neutral,neutral,picture7.jpg,picture7.jpg,1,threat,threat,picture2.jpg,picture2.jpg,1,neutral,neutral,picture6.jpg,picture6.jpg,1,neutral,neutral,picture1.jpg,picture1.jpg,1,neutral,neutral,picture10.jpg,picture10.jpg,1,threat,threat,picture4.jpg,picture4.jpg,1,threat,threat,picture1.jpg,picture1.jpg,1,neutral,neutral,picture4.jpg,picture4.jpg
a3eqr9c0l23o6e,5,1,-979,NA,neutral,1,NA,NA,NA,NA,NA,NA,NA,NA,NA,NA,NA,NA,NA,NA,NA,NA,NA,NA,NA,NA,NA,NA,NA,NA,NA,NA,NA,NA,NA,NA,NA,NA,NA,NA,NA,NA,NA,NA,NA,NA,NA,NA,NA,NA,NA,NA,NA,NA,NA,NA,NA,NA
a3eqr9c0l23o6e,5,1,-979,NA,threat,1,NA,NA,NA,NA,NA,NA,NA,NA,NA,NA,NA,NA,NA,NA,NA,NA,NA,NA,NA,NA,NA,NA,NA,NA,NA,NA,NA,NA,NA,NA,NA,NA,NA,NA,NA,NA,NA,NA,NA,NA,NA,NA,NA,NA,NA,NA,NA,NA,NA,NA,NA,NA
a3eqr9c0l23o6e,5,1,-979,NA,neutral,1,NA,NA,NA,NA,NA,NA,NA,NA,NA,NA,NA,NA,NA,NA,NA,NA,NA,NA,NA,NA,NA,NA,NA,NA,NA,NA,NA,NA,NA,NA,NA,NA,NA,NA,NA,NA,NA,NA,NA,NA,NA,NA,NA,NA,NA,NA,NA,NA,NA,NA,NA,NA
a3eqr9c0l23o6e,5,1,-979,NA,threat,1,NA,NA,NA,NA,NA,NA,NA,NA,NA,NA,NA,NA,NA,NA,NA,NA,NA,NA,NA,NA,NA,NA,NA,NA,NA,NA,NA,NA,NA,NA,NA,NA,NA,NA,NA,NA,NA,NA,NA,NA,NA,NA,NA,NA,NA,NA,NA,NA,NA,NA,NA,NA
a3eqr9c0l23o6e,5,1,-979,NA,neutral,1,NA,NA,NA,NA,NA,NA,NA,NA,NA,NA,NA,NA,NA,NA,NA,NA,NA,NA,NA,NA,NA,NA,NA,NA,NA,NA,NA,NA,NA,NA,NA,NA,NA,NA,NA,NA,NA,NA,NA,NA,NA,NA,NA,NA,NA,NA,NA,NA,NA,NA,NA,NA
a3eqr9c0l23o6e,5,1,-979,NA,neutral,1,NA,NA,NA,NA,NA,NA,NA,NA,NA,NA,NA,NA,NA,NA,NA,NA,NA,NA,NA,NA,NA,NA,NA,NA,NA,NA,NA,NA,NA,NA,NA,NA,NA,NA,NA,NA,NA,NA,NA,NA,NA,NA,NA,NA,NA,NA,NA,NA,NA,NA,NA,NA
a3eqr9c0l23o6e,5,1,-979,NA,neutral,1,NA,NA,NA,NA,NA,NA,NA,NA,NA,NA,NA,NA,NA,NA,NA,NA,NA,NA,NA,NA,NA,NA,NA,NA,NA,NA,NA,NA,NA,NA,NA,NA,NA,NA,NA,NA,NA,NA,NA,NA,NA,NA,NA,NA,NA,NA,NA,NA,NA,NA,NA,NA
a3eqr9c0l23o6e,5,1,-979,NA,threat,1,NA,NA,NA,NA,NA,NA,NA,NA,NA,NA,NA,NA,NA,NA,NA,NA,NA,NA,NA,NA,NA,NA,NA,NA,NA,NA,NA,NA,NA,NA,NA,NA,NA,NA,NA,NA,NA,NA,NA,NA,NA,NA,NA,NA,NA,NA,NA,NA,NA,NA,NA,NA
a3eqr9c0l23o6e,5,1,-979,NA,neutral,1,NA,NA,NA,NA,NA,NA,NA,NA,NA,NA,NA,NA,NA,NA,NA,NA,NA,NA,NA,NA,NA,NA,NA,NA,NA,NA,NA,NA,NA,NA,NA,NA,NA,NA,NA,NA,NA,NA,NA,NA,NA,NA,NA,NA,NA,NA,NA,NA,NA,NA,NA,NA
a3eqr9c0l23o6e,5,1,-979,NA,threat,1,NA,NA,NA,NA,NA,NA,NA,NA,NA,NA,NA,NA,NA,NA,NA,NA,NA,NA,NA,NA,NA,NA,NA,NA,NA,NA,NA,NA,NA,NA,NA,NA,NA,NA,NA,NA,NA,NA,NA,NA,NA,NA,NA,NA,NA,NA,NA,NA,NA,NA,NA,NA
a3eqr9c0l23o6e,5,1,18631,10,NA,NA,NA,NA,1,neutral,neutral,picture9.jpg,picture9.jpg,1,threat,threat,picture3.jpg,picture3.jpg,1,neutral,neutral,picture7.jpg,picture7.jpg,1,threat,threat,picture2.jpg,picture2.jpg,1,neutral,neutral,picture6.jpg,picture6.jpg,1,neutral,neutral,picture1.jpg,picture1.jpg,1,neutral,neutral,picture10.jpg,picture10.jpg,1,threat,threat,picture4.jpg,picture4.jpg,1,threat,threat,picture1.jpg,picture1.jpg,1,neutral,neutral,picture4.jpg,picture4.jpg
a3eqr9c0l23o6e,6,1,-3311,NA,neutral,1,NA,NA,NA,NA,NA,NA,NA,NA,NA,NA,NA,NA,NA,NA,NA,NA,NA,NA,NA,NA,NA,NA,NA,NA,NA,NA,NA,NA,NA,NA,NA,NA,NA,NA,NA,NA,NA,NA,NA,NA,NA,NA,NA,NA,NA,NA,NA,NA,NA,NA,NA,NA
a3eqr9c0l23o6e,6,1,-3311,NA,threat,1,NA,NA,NA,NA,NA,NA,NA,NA,NA,NA,NA,NA,NA,NA,NA,NA,NA,NA,NA,NA,NA,NA,NA,NA,NA,NA,NA,NA,NA,NA,NA,NA,NA,NA,NA,NA,NA,NA,NA,NA,NA,NA,NA,NA,NA,NA,NA,NA,NA,NA,NA,NA
a3eqr9c0l23o6e,6,1,-3311,NA,neutral,1,NA,NA,NA,NA,NA,NA,NA,NA,NA,NA,NA,NA,NA,NA,NA,NA,NA,NA,NA,NA,NA,NA,NA,NA,NA,NA,NA,NA,NA,NA,NA,NA,NA,NA,NA,NA,NA,NA,NA,NA,NA,NA,NA,NA,NA,NA,NA,NA,NA,NA,NA,NA
